ActivityID,AccelX,AccelY,AccelZ,GyroX,GyroY,GyroZ
7,0.51123046875,3.763671875,10.2578125,-0.2130126953125,0.400634765625,1.185546875
7,-0.54833984375,3.95703125,10.2421875,-0.07135009765625,0.28857421875,0.703125
7,-1.79296875,3.734375,9.0703125,-0.10015869140625,0.1448974609375,0.454833984375
7,-0.09454345703125,3.900390625,8.15625,0.0426025390625,0.007457733154296875,-0.0181121826171875
7,0.4296875,3.85546875,8.859375,-0.08203125,-0.012786865234375,0.0159759521484375
7,-0.70849609375,2.28125,9.6015625,-0.0159759521484375,-0.01491546630859375,0.06390380859375
7,-0.83935546875,2.37890625,9.53125,-0.2130126953125,0.02557373046875,-0.0266265869140625
7,-0.9052734375,2.37109375,9.4765625,-0.278076171875,0.436767578125,-0.053253173828125
7,-0.9541015625,2.42578125,9.5,-0.8203125,0.85546875,0.03729248046875
7,-0.79150390625,2.3203125,9.3359375,-1.396484375,1.2080078125,0.096923828125
7,-1.494140625,1.7734375,8.0078125,-1.7548828125,-0.250244140625,-0.1875
7,-2.625,1.1767578125,7.40625,-1.771484375,-1.9384765625,-0.96923828125
7,-1.6689453125,1.3203125,7.453125,-0.87548828125,-3.1640625,-2.40625
7,0.99853515625,0.2022705078125,9.453125,0.330322265625,-2.150390625,-2.044921875
7,-1.134765625,-1.6953125,12.1796875,0.2332763671875,-0.95654296875,-0.8544921875
7,-2.12890625,-3.283203125,13.1796875,-0.39208984375,0.2822265625,0.58154296875
7,0.71240234375,-3.716796875,6.95703125,-0.477294921875,2.166015625,2.361328125
7,4.1953125,-2.755859375,7.375,0.283447265625,3.603515625,3.591796875
7,6.84765625,-2.3203125,10.28125,-1.201171875,4.33203125,4.61328125
7,3.099609375,-5.23828125,11.4765625,-1.54296875,3.396484375,3.609375
7,-3.06640625,-8.703125,9.03125,-0.85986328125,0.84814453125,1.478515625
7,-6.09765625,-3.634765625,6.390625,-0.46435546875,0.06072998046875,0.1331787109375
7,-10.1171875,-4.265625,5.55859375,1.6611328125,-1.6953125,-2.517578125
7,-6.5703125,-4.796875,6.83984375,0.3740234375,-3.486328125,-4.03125
7,-2.095703125,-5.58984375,6.11328125,0.92138671875,-3.33984375,-4.13671875
7,-7.6796875,-11.40625,10.421875,1.279296875,-3.099609375,-3.71875
7,-10.171875,-4.890625,6.88671875,0.9951171875,-2.078125,-2.177734375
7,-7.36328125,-3.865234375,3.931640625,0.5849609375,-0.73291015625,-0.6904296875
7,-6.5078125,-7.46484375,8.2265625,-0.0276947021484375,0.52099609375,0.07989501953125
7,-1.234375,-3.921875,6.03125,-1.0029296875,1.5341796875,1.7666015625
7,2.986328125,-2.501953125,7.16796875,-1.4853515625,2.7265625,3.765625
7,7.9609375,-2.833984375,11.2421875,-0.91845703125,3.0625,5.0
7,5.83984375,-1.787109375,8.9921875,-2.3359375,3.3046875,5.30859375
7,-0.3076171875,-4.45703125,9.2421875,-2.484375,0.751953125,3.03515625
7,-7.484375,-9.328125,8.0625,0.40478515625,0.25244140625,0.3642578125
7,-11.8359375,-5.5625,5.9609375,1.53125,-0.5654296875,-1.291015625
7,-9.1875,-5.25,6.6875,1.310546875,-2.234375,-3.638671875
7,-1.8603515625,-8.90625,5.5,0.47607421875,-3.048828125,-4.5234375
7,-6.9609375,-10.3046875,7.25,1.2216796875,-2.798828125,-4.0390625
7,-9.296875,-7.93359375,7.63671875,0.9287109375,-2.197265625,-2.955078125
7,-9.03125,-4.89453125,3.970703125,0.46875,-1.0302734375,-1.498046875
7,-6.98828125,-4.88671875,4.1953125,-0.88623046875,-0.51025390625,-0.2705078125
7,-4.96875,-6.63671875,5.86328125,-0.22900390625,0.41552734375,0.2471923828125
7,-0.1688232421875,-4.54296875,5.08203125,-0.64013671875,1.1298828125,1.365234375
7,4.1875,-3.298828125,9.1953125,-1.4345703125,1.568359375,2.84765625
7,9.0,-5.546875,12.296875,-0.66259765625,2.248046875,3.669921875
7,4.37890625,-6.125,10.5625,-1.640625,2.998046875,4.84765625
7,0.016754150390625,-6.296875,6.12109375,-1.0537109375,1.8857421875,4.05078125
7,-2.28125,-7.44140625,4.81640625,-0.6455078125,0.22802734375,0.5966796875
7,-5.25,-3.01171875,3.93359375,-0.06390380859375,-0.39208984375,-0.5380859375
7,-10.0,-5.4453125,3.19921875,0.9130859375,-1.388671875,-2.677734375
7,-7.12890625,-6.953125,4.93359375,1.705078125,-2.03125,-3.8671875
7,-7.046875,-8.6796875,5.59375,1.109375,-2.283203125,-3.484375
7,-6.66796875,-7.97265625,6.8984375,0.904296875,-2.14453125,-2.326171875
7,-6.15234375,-6.0703125,6.48046875,0.19921875,-2.0,-2.0
7,-5.37109375,-5.4140625,4.55078125,0.5654296875,-0.83740234375,-1.4375
7,-6.9453125,-7.8046875,5.62109375,0.140625,0.372802734375,0.253662109375
7,-4.1171875,-8.3046875,7.421875,-0.95751953125,1.86328125,2.052734375
7,2.623046875,-5.796875,6.97265625,-2.623046875,3.134765625,4.234375
7,4.41796875,-4.31640625,6.59375,-1.4775390625,3.330078125,4.50390625
7,1.45703125,-5.046875,9.1875,-0.5146484375,2.369140625,4.59375
7,-2.55078125,-6.70703125,7.62109375,-1.1650390625,1.552734375,2.13671875
7,-10.3125,-10.34375,11.546875,-1.58203125,-0.06817626953125,0.1129150390625
7,-12.078125,-8.8515625,4.04296875,0.58154296875,-0.76806640625,-1.763671875
7,-6.56640625,-4.2265625,4.984375,0.84375,-2.35546875,-4.17578125
7,-2.42578125,-3.873046875,5.0625,1.73046875,-3.828125,-5.6328125
7,-4.5703125,-9.21875,6.42578125,1.6884765625,-4.484375,-5.1171875
7,-7.00390625,-8.1015625,7.7421875,0.466552734375,-2.669921875,-3.146484375
7,-11.3125,-8.6875,6.16015625,0.9599609375,-0.454833984375,-1.3798828125
7,-11.3515625,-6.28125,6.234375,-0.85009765625,0.3291015625,0.08734130859375
7,-4.37109375,-6.08203125,1.9072265625,0.40576171875,0.5771484375,0.8671875
7,3.3203125,-1.638671875,4.2109375,-0.50830078125,1.4052734375,2.107421875
7,9.625,0.59130859375,7.51953125,-2.18359375,2.5625,3.712890625
7,11.296875,-1.4306640625,12.453125,-2.119140625,3.607421875,4.9921875
7,5.625,-3.24609375,7.28125,-0.430419921875,2.85546875,5.22265625
7,2.310546875,-4.0703125,6.078125,-1.46484375,1.443359375,2.8671875
7,-3.107421875,-6.28515625,5.34765625,-1.599609375,0.1566162109375,0.47607421875
7,-7.578125,-7.859375,5.6484375,0.7490234375,-0.81396484375,-1.8359375
7,-8.015625,-6.48046875,5.63671875,1.19921875,-2.162109375,-4.046875
7,-4.85546875,-5.46875,4.7734375,1.7841796875,-2.935546875,-4.5078125
7,-7.40234375,-10.140625,7.296875,0.576171875,-2.697265625,-3.943359375
7,-7.1484375,-7.12109375,7.2890625,0.73388671875,-2.63671875,-3.572265625
7,-6.8046875,-5.85546875,4.0625,0.10333251953125,-1.044921875,-1.91015625
7,-5.1875,-6.30078125,4.296875,-0.41552734375,0.10015869140625,-0.337646484375
7,-4.24609375,-10.4375,7.28125,0.454833984375,0.8076171875,1.6298828125
7,1.162109375,-4.4609375,4.328125,-1.603515625,1.734375,2.99609375
7,9.015625,-0.439453125,7.73828125,-1.021484375,2.537109375,4.95703125
7,12.140625,-2.365234375,9.296875,-0.1832275390625,2.57421875,5.234375
7,4.40625,-5.375,5.609375,-0.48681640625,2.345703125,4.44921875
7,0.07904052734375,-7.01171875,5.09765625,0.2215576171875,1.4384765625,2.64453125
7,-6.09375,-9.875,2.84765625,-0.53466796875,0.12890625,-0.004261016845703125
7,-8.28125,-6.4453125,3.19921875,0.108642578125,-1.18359375,-1.787109375
7,-8.34375,-5.77734375,3.904296875,0.12359619140625,-2.50390625,-4.03515625
7,-5.6171875,-5.0390625,5.87109375,1.5947265625,-3.01171875,-5.14453125
7,-9.078125,-6.98828125,7.52734375,1.9130859375,-3.216796875,-5.09765625
7,-8.1640625,-6.640625,7.078125,0.95556640625,-2.4453125,-3.60546875
7,-7.69140625,-6.62890625,4.79296875,0.38134765625,-0.454833984375,-2.330078125
7,-7.41015625,-7.64453125,2.943359375,-0.85107421875,-0.03515625,-0.51220703125
7,-3.330078125,-6.50390625,2.728515625,-0.360107421875,0.1629638671875,0.76806640625
7,4.55859375,-4.171875,3.421875,-0.86376953125,1.3125,2.77734375
7,9.890625,2.732421875,6.734375,-2.9609375,2.33984375,4.90234375
7,12.578125,0.720703125,11.46875,-0.72021484375,1.8525390625,6.015625
7,5.91015625,-2.919921875,7.7265625,-0.74462890625,2.552734375,4.90234375
7,0.40234375,-6.8828125,4.63671875,-0.5537109375,1.740234375,3.880859375
7,-4.2265625,-9.9765625,2.853515625,-0.927734375,0.705078125,0.80517578125
7,-7.83203125,-9.0703125,2.869140625,0.2034912109375,-0.77001953125,-1.33203125
7,-9.3203125,-7.16015625,3.41796875,0.7724609375,-2.2734375,-4.671875
7,-5.90234375,-5.54296875,3.49609375,1.4638671875,-2.904296875,-6.03125
7,-8.828125,-8.3828125,6.5234375,1.4033203125,-2.939453125,-5.5546875
7,-12.203125,-10.8515625,7.03125,0.9384765625,-1.638671875,-3.841796875
7,-10.765625,-6.0703125,3.041015625,0.818359375,-0.4453125,-2.568359375
7,-7.90625,-3.90625,2.080078125,0.1300048828125,0.3984375,-0.90234375
7,-1.650390625,-4.08203125,2.04296875,0.1981201171875,0.5166015625,0.609375
7,5.296875,-3.681640625,4.59765625,-0.349365234375,0.5654296875,1.818359375
7,8.140625,0.673828125,5.640625,-1.4658203125,1.185546875,3.52734375
7,12.2109375,1.0810546875,10.234375,-2.06640625,1.5,5.1796875
7,10.28125,-2.94140625,10.375,-1.5361328125,2.134765625,5.53125
7,4.44140625,-4.57421875,7.16796875,-0.6787109375,1.6376953125,4.12109375
7,0.322021484375,-6.23828125,4.52734375,-1.4892578125,0.77783203125,2.46875
7,-5.6484375,-8.328125,4.33984375,0.70751953125,0.06500244140625,-0.31640625
7,-11.1015625,-9.4296875,6.17578125,0.0266265869140625,-1.609375,-2.751953125
7,-5.96875,-3.861328125,3.626953125,1.3447265625,-1.9345703125,-4.41796875
7,-5.7265625,-7.734375,4.83984375,1.4560546875,-2.041015625,-4.7578125
7,-9.8828125,-8.53125,5.9453125,1.5986328125,-2.0078125,-4.20703125
7,-7.14453125,-6.72265625,3.5859375,1.0078125,-1.103515625,-2.34765625
7,-4.62109375,-6.796875,1.4140625,0.68603515625,-0.32177734375,-1.3525390625
7,-3.875,-8.0625,2.9453125,0.207763671875,0.12890625,-0.453857421875
7,0.439453125,-5.72265625,3.39453125,-0.424072265625,0.7734375,0.83837890625
7,3.552734375,-6.2890625,6.21875,-1.5146484375,1.451171875,1.50390625
7,8.203125,-2.119140625,8.6328125,-2.9140625,1.4111328125,2.458984375
7,8.09375,-3.669921875,10.421875,-1.4423828125,1.89453125,3.814453125
7,5.7890625,-4.40625,12.265625,-1.3212890625,1.869140625,3.966796875
7,1.8544921875,-5.2578125,5.734375,0.56689453125,0.79150390625,3.369140625
7,-1.54296875,-6.8359375,3.138671875,0.07989501953125,0.14697265625,1.0087890625
7,-6.0546875,-8.0703125,2.892578125,0.7763671875,-0.249267578125,-0.818359375
7,-8.6796875,-8.15625,5.46484375,0.986328125,-1.5400390625,-2.54296875
7,-5.37109375,-6.296875,5.4140625,1.0869140625,-2.51171875,-4.48828125
7,-4.1328125,-7.59765625,7.2109375,1.3125,-2.033203125,-4.28515625
7,-6.56640625,-9.5390625,8.1796875,0.9501953125,-1.8095703125,-2.572265625
7,-8.0390625,-8.203125,5.71875,0.0394287109375,-0.8671875,-1.6884765625
7,-4.07421875,-5.45703125,2.9765625,-0.034088134765625,-0.161865234375,-1.0048828125
7,-0.0634765625,-5.765625,3.109375,-0.12249755859375,0.3037109375,0.265380859375
7,1.1728515625,-5.80078125,4.72265625,-0.1683349609375,1.3056640625,1.6259765625
7,4.8984375,-4.9609375,7.88671875,-0.7998046875,2.125,2.337890625
7,10.359375,-2.111328125,8.65625,0.390869140625,3.009765625,4.125
7,7.1953125,-5.84375,8.828125,-1.9296875,4.359375,4.3984375
7,-0.2430419921875,-7.66796875,7.8125,-2.0,3.078125,3.578125
7,-3.298828125,-8.90625,5.08984375,-2.072265625,0.20556640625,1.13671875
7,-10.8828125,-5.01953125,7.22265625,0.0511474609375,-0.466552734375,-0.6005859375
7,-12.7734375,-5.453125,7.50390625,0.59033203125,-1.6669921875,-2.529296875
7,-7.2734375,-5.93359375,6.76171875,0.59033203125,-2.693359375,-4.53125
7,-2.88671875,-6.05078125,6.0,1.2392578125,-2.302734375,-4.65625
7,-7.9375,-9.1015625,6.8671875,0.9482421875,-1.7373046875,-3.76953125
7,-9.671875,-6.8203125,5.3828125,0.5283203125,-1.16015625,-2.267578125
7,-6.953125,-4.7890625,3.2421875,0.343017578125,-0.3173828125,-1.6044921875
7,-4.9375,-4.75,3.21484375,-0.2301025390625,0.55615234375,-0.9609375
7,-0.56884765625,-6.17578125,6.05859375,-0.6904296875,1.14453125,0.384521484375
7,4.03125,-4.83984375,7.22265625,-2.08984375,1.1865234375,2.142578125
7,7.28515625,-3.46875,7.65625,-2.103515625,1.4775390625,3.9140625
7,7.12890625,-3.26171875,10.0390625,0.4814453125,2.06640625,3.94921875
7,0.54345703125,-4.859375,8.96875,0.01171875,1.3125,3.08984375
7,-1.384765625,-9.2734375,5.828125,-1.91796875,1.302734375,3.03125
7,-4.7265625,-12.8046875,9.2578125,-1.3447265625,0.85986328125,2.328125
7,-8.3828125,-11.375,7.96875,0.3388671875,0.14599609375,-0.01491546630859375
7,-4.3125,-3.501953125,6.03515625,-0.046875,-1.326171875,-2.140625
7,-5.55859375,-3.486328125,3.490234375,1.0263671875,-2.26953125,-4.14453125
7,-6.50390625,-5.6484375,3.875,1.408203125,-2.490234375,-4.43359375
7,-10.078125,-7.13671875,6.46875,0.91845703125,-1.84375,-3.52734375
7,-8.1953125,-7.7890625,5.6796875,0.48046875,-1.134765625,-2.36328125
7,-6.07421875,-6.6484375,3.47265625,0.472900390625,-0.67626953125,-1.6142578125
7,-4.9375,-5.0703125,2.30859375,0.372802734375,-0.260009765625,-0.88623046875
7,-2.8359375,-6.87109375,4.30078125,0.65625,0.32275390625,0.260986328125
7,1.6494140625,-6.328125,8.484375,-1.619140625,0.9248046875,2.0234375
7,6.15625,-4.55859375,8.2578125,-2.234375,1.7470703125,3.97265625
7,8.140625,-3.845703125,9.6953125,-0.6474609375,2.359375,5.2109375
7,4.3359375,-3.119140625,5.58984375,-1.10546875,2.80078125,4.74609375
7,0.454833984375,-5.7265625,4.89453125,-1.1171875,1.6259765625,3.892578125
7,-4.93359375,-9.734375,4.90234375,-1.2451171875,0.2269287109375,0.609375
7,-9.515625,-7.26953125,3.025390625,1.0029296875,-0.60400390625,-1.40625
7,-10.3828125,-4.390625,4.0625,0.494384765625,-1.88671875,-3.291015625
7,-5.515625,-4.47265625,4.078125,0.3037109375,-3.181640625,-4.21484375
7,-6.1796875,-7.0859375,5.03515625,0.96826171875,-2.255859375,-4.53515625
7,-8.5703125,-7.3828125,5.73828125,0.845703125,-1.3447265625,-3.67578125
7,-7.203125,-5.32421875,5.16015625,1.0322265625,-0.33984375,-2.525390625
7,-5.64453125,-5.50390625,3.833984375,0.5654296875,-0.09478759765625,-1.25
7,-2.9453125,-6.8984375,5.046875,-0.031951904296875,0.3046875,-0.496337890625
7,0.250244140625,-7.16796875,3.962890625,-0.36962890625,0.8232421875,0.654296875
7,3.908203125,-2.998046875,6.3046875,-2.34375,1.1845703125,2.607421875
7,7.67578125,-3.5234375,9.2265625,-3.671875,2.361328125,4.2421875
7,6.8359375,-3.80859375,10.1171875,-2.328125,2.66796875,4.85546875
7,0.9072265625,-3.212890625,7.6328125,-0.353759765625,2.01171875,3.6171875
7,-0.99951171875,-5.3984375,4.53125,-1.7587890625,1.548828125,2.517578125
7,-7.0625,-9.6875,5.8828125,-0.658203125,0.138427734375,0.2471923828125
7,-9.65625,-9.015625,6.515625,0.2919921875,-0.63720703125,-1.00390625
7,-6.2890625,-4.01953125,5.1484375,0.36328125,-1.783203125,-3.4765625
7,-4.921875,-5.03515625,4.83984375,1.763671875,-2.283203125,-4.6484375
7,-7.22265625,-6.2734375,5.06640625,1.2548828125,-2.419921875,-4.46484375
7,-9.4296875,-7.23828125,4.40625,0.9501953125,-1.9013671875,-3.0078125
7,-7.55859375,-6.58984375,5.0625,-0.07562255859375,-1.01171875,-1.78125
7,-6.7578125,-6.34375,3.775390625,-0.012786865234375,-0.29833984375,-1.09375
7,-3.8359375,-6.04296875,2.431640625,-0.27490234375,-0.11077880859375,-0.402587890625
7,0.43701171875,-5.44921875,3.9140625,-0.9150390625,0.572265625,1.44140625
7,5.8125,-4.671875,6.8984375,-1.9775390625,1.830078125,3.240234375
7,6.96484375,-4.796875,8.7890625,-3.095703125,2.7265625,4.48046875
7,5.07421875,-5.2890625,9.375,0.9365234375,2.455078125,4.515625
7,2.609375,-7.06640625,5.98046875,-2.37109375,1.7587890625,4.14453125
7,-1.978515625,-10.15625,5.265625,-0.15234375,1.0400390625,1.8330078125
7,-5.75,-10.0390625,3.52734375,0.3876953125,-0.1097412109375,-0.284423828125
7,-7.93359375,-3.384765625,4.0078125,0.1171875,-1.2158203125,-2.654296875
7,-6.171875,-6.0390625,3.609375,0.31103515625,-1.6552734375,-4.11328125
7,-5.94921875,-6.6484375,4.58203125,0.95458984375,-1.2177734375,-4.25390625
7,-8.6171875,-8.4296875,7.0234375,0.62744140625,-1.1025390625,-3.65234375
7,-7.15625,-6.41796875,4.4453125,-0.045806884765625,-0.8466796875,-2.744140625
7,-5.54296875,-4.9296875,2.162109375,0.466552734375,-0.330322265625,-1.974609375
7,-6.23046875,-7.6796875,2.609375,-0.078857421875,-0.073486328125,-0.93408203125
7,-2.9375,-7.78515625,3.15234375,-0.70849609375,0.505859375,0.5380859375
7,2.013671875,-6.44921875,6.359375,-2.02734375,0.85205078125,2.35546875
7,5.359375,-4.66796875,7.19921875,-2.6328125,1.138671875,4.07421875
7,6.78515625,-5.30859375,8.8125,-2.818359375,1.181640625,4.55859375
7,2.9453125,-6.87109375,7.56640625,-1.9482421875,0.8203125,4.53515625
7,-1.24609375,-6.390625,4.046875,-0.83203125,0.2578125,3.63671875
7,-4.65625,-7.7421875,3.703125,-0.22265625,0.2215576171875,1.01953125
7,-6.796875,-9.3671875,2.83984375,0.466552734375,0.0894775390625,-1.1708984375
7,-7.203125,-7.140625,3.666015625,0.9013671875,-0.72021484375,-3.359375
7,-4.359375,-6.15625,3.125,1.412109375,-1.3056640625,-4.3828125
7,-6.01171875,-8.078125,3.90625,1.810546875,-1.404296875,-4.22265625
7,-8.390625,-7.70703125,4.3828125,0.74365234375,-1.3232421875,-3.38671875
7,-6.78125,-6.68359375,3.400390625,0.60498046875,-0.798828125,-2.416015625
7,-6.1171875,-6.9140625,3.314453125,-0.1363525390625,-0.2705078125,-1.3642578125
7,-5.23046875,-8.390625,3.8046875,0.1171875,0.12890625,-0.449462890625
7,-1.4951171875,-5.53125,4.77734375,-0.876953125,0.21630859375,1.306640625
7,3.2890625,-4.8046875,6.37890625,-1.5107421875,0.56787109375,3.095703125
7,6.3671875,-3.48046875,8.75,-0.681640625,1.416015625,4.74609375
7,5.078125,-4.40625,8.5546875,-1.0703125,1.59765625,4.9609375
7,3.138671875,-4.984375,7.01953125,0.314208984375,1.4765625,2.9375
7,-0.289794921875,-7.703125,4.21484375,-0.54638671875,0.890625,1.9365234375
7,-5.96484375,-11.0390625,5.61328125,-0.11187744140625,0.313232421875,0.83837890625
7,-10.53125,-12.0078125,4.81640625,0.331298828125,-0.250244140625,-0.6826171875
7,-7.33203125,-5.20703125,4.046875,0.10650634765625,-1.251953125,-2.66796875
7,-4.38671875,-4.0078125,3.150390625,1.4619140625,-1.4267578125,-3.87890625
7,-6.0625,-5.83984375,3.048828125,1.4111328125,-1.5869140625,-4.265625
7,-8.0390625,-8.1953125,5.3125,1.2431640625,-1.54296875,-3.599609375
7,-6.59765625,-6.6171875,3.884765625,0.6103515625,-0.68798828125,-2.451171875
7,-7.2265625,-6.9453125,3.43359375,1.0947265625,0.020233154296875,-1.16015625
7,-4.51171875,-6.91015625,1.533203125,1.4296875,-0.03729248046875,-0.26416015625
7,-0.2154541015625,-5.671875,3.443359375,0.172607421875,0.607421875,1.1142578125
7,3.29296875,-5.34765625,6.23046875,-1.3671875,0.83203125,2.67578125
7,5.76171875,-6.6796875,11.6328125,-0.7158203125,0.61376953125,3.958984375
7,4.5703125,-6.78125,11.125,-0.84033203125,1.208984375,4.171875
7,-0.016754150390625,-7.0625,6.7578125,-0.6923828125,0.99609375,4.109375
7,-2.52734375,-9.3125,6.3046875,-0.2109375,1.2080078125,3.12890625
7,-5.79296875,-9.296875,4.44140625,0.29931640625,0.1278076171875,1.423828125
7,-8.8515625,-9.3984375,5.359375,-0.0980224609375,-0.214111328125,-0.677734375
7,-8.0859375,-5.9296875,6.3359375,-0.22900390625,-1.623046875,-3.123046875
7,-6.64453125,-4.78125,4.57421875,0.642578125,-1.994140625,-4.92578125
7,-5.91015625,-4.89453125,3.392578125,0.73291015625,-1.701171875,-4.7421875
7,-9.6484375,-7.00390625,4.73046875,1.0234375,-1.4150390625,-3.76171875
7,-8.109375,-7.25,4.703125,0.14599609375,-0.8818359375,-2.455078125
7,-6.234375,-5.58984375,3.31640625,0.178955078125,-0.54345703125,-1.4384765625
7,-4.8203125,-6.125,3.12890625,0.93408203125,-0.06817626953125,-0.79052734375
7,-1.3740234375,-5.39453125,3.94140625,0.472900390625,0.361083984375,-0.1917724609375
7,3.5234375,-4.6484375,5.9140625,0.1160888671875,0.99072265625,0.98095703125
7,8.6484375,-4.41015625,8.390625,-1.1005859375,1.0146484375,2.123046875
7,8.8046875,-5.60546875,10.921875,-0.295166015625,1.310546875,3.794921875
7,7.83984375,-3.533203125,9.765625,-0.66357421875,2.37109375,4.65625
7,2.818359375,-4.69921875,4.0390625,-1.4931640625,2.166015625,4.59375
7,0.147216796875,-7.05859375,2.564453125,-0.15869140625,1.51953125,3.38671875
7,-2.892578125,-8.984375,5.7109375,-1.666015625,0.207763671875,0.5390625
7,-8.0,-9.296875,5.54296875,-0.2481689453125,-0.57958984375,-0.66796875
7,-9.1953125,-6.92578125,4.8828125,0.763671875,-1.3232421875,-2.642578125
7,-5.94921875,-4.50390625,4.6484375,1.330078125,-1.7333984375,-4.3828125
7,-5.62890625,-6.52734375,4.78125,1.1611328125,-1.8330078125,-4.12109375
7,-8.3046875,-8.2265625,5.875,1.0888671875,-1.515625,-3.17578125
7,-8.875,-7.0,4.7265625,0.50390625,-1.115234375,-2.048828125
7,-6.33203125,-5.1171875,2.814453125,0.65185546875,-0.39208984375,-1.146484375
7,-4.25,-6.4296875,2.46875,-0.24609375,-0.273681640625,-0.82861328125
7,-0.385498046875,-4.83984375,3.560546875,-0.7978515625,0.10333251953125,0.102294921875
7,3.443359375,-5.6953125,6.5625,-0.80419921875,0.79345703125,1.7216796875
7,5.8515625,-5.0078125,8.8828125,-1.228515625,1.6494140625,4.28125
7,7.50390625,-5.8203125,9.515625,0.2332763671875,2.751953125,6.07421875
7,2.611328125,-6.56640625,8.2578125,-0.958984375,2.349609375,5.61328125
7,-0.09454345703125,-7.484375,5.5546875,-1.8564453125,1.328125,3.859375
7,-7.3515625,-11.2578125,4.80078125,-0.69775390625,0.2130126953125,1.1416015625
7,-15.390625,-11.9609375,5.765625,-0.090576171875,-0.149169921875,-0.986328125
7,-13.0625,-7.125,3.951171875,0.88427734375,-1.140625,-3.111328125
7,-6.67578125,-4.61328125,3.59765625,1.3212890625,-1.9375,-5.328125
7,-5.65625,-5.2578125,3.1875,1.806640625,-2.4375,-5.953125
7,-8.09375,-7.015625,4.2421875,2.279296875,-1.958984375,-5.2265625
7,-9.5859375,-6.96484375,5.375,1.53515625,-1.427734375,-3.080078125
7,-10.234375,-10.5234375,3.630859375,0.775390625,-0.607421875,-1.611328125
7,-7.76171875,-7.4375,3.833984375,0.08306884765625,0.022369384765625,-0.173583984375
7,-1.525390625,-9.0625,4.4765625,-0.0809326171875,0.2578125,2.033203125
7,3.3828125,-5.26953125,6.13671875,0.261962890625,0.822265625,4.30078125
7,6.62890625,-2.755859375,8.7109375,-0.5380859375,1.44140625,6.046875
7,7.15625,-3.56640625,9.859375,-2.0,1.7451171875,5.23046875
7,1.892578125,-6.6484375,7.21875,0.234375,1.537109375,4.5
7,-3.44921875,-10.109375,5.33984375,-0.1512451171875,0.85205078125,2.75
7,-8.5234375,-10.875,5.10546875,-0.437744140625,0.18212890625,0.42822265625
7,-9.1328125,-7.5390625,2.51953125,0.4111328125,-0.49951171875,-2.001953125
7,-8.5546875,-5.03515625,3.205078125,0.62646484375,-1.1962890625,-4.3046875
7,-5.32421875,-4.40625,3.873046875,1.1875,-1.62890625,-4.88671875
7,-8.0703125,-7.6796875,4.0859375,1.09765625,-1.5341796875,-4.69140625
7,-8.046875,-6.8984375,4.5,1.40625,-1.2802734375,-3.900390625
7,-10.28125,-7.44140625,3.787109375,0.6572265625,-0.9052734375,-3.2109375
7,-7.16796875,-6.67578125,3.005859375,0.81494140625,-0.52392578125,-1.931640625
7,-4.3515625,-9.0625,2.6796875,0.2247314453125,0.0298309326171875,-0.15234375
7,-0.9169921875,-7.34375,3.052734375,-0.77783203125,0.343994140625,2.44140625
7,2.39453125,-3.388671875,5.8125,-1.5673828125,0.62841796875,4.35546875
7,6.9921875,-1.873046875,7.62109375,-1.15234375,0.88330078125,5.125
7,6.82421875,-4.828125,9.921875,-0.39404296875,1.4306640625,5.40234375
7,2.66796875,-7.71484375,6.09375,0.1981201171875,2.154296875,4.4296875
7,-0.259765625,-12.265625,2.3203125,-0.64892578125,1.0078125,3.029296875
7,-4.7890625,-10.21875,2.326171875,-0.87890625,0.1300048828125,0.52197265625
7,-8.9453125,-8.09375,4.109375,0.307861328125,-0.454833984375,-1.568359375
7,-7.86328125,-4.3046875,3.44921875,0.56689453125,-1.1884765625,-3.900390625
7,-6.1796875,-4.9921875,3.224609375,1.1884765625,-1.5830078125,-5.3515625
7,-8.921875,-7.29296875,4.0546875,1.4521484375,-1.841796875,-5.33203125
7,-9.1953125,-7.6875,5.02734375,1.0986328125,-1.3955078125,-4.0625
7,-10.0703125,-7.91015625,3.94921875,0.2215576171875,-0.7392578125,-2.328125
7,-7.83984375,-6.4375,2.33984375,0.1651611328125,0.197021484375,-1.505859375
7,-5.7109375,-3.40625,1.6630859375,0.10333251953125,0.0191802978515625,-1.076171875
7,1.2236328125,-3.64453125,3.37890625,-0.53369140625,0.295166015625,0.5390625
7,5.828125,-4.2109375,5.32421875,-1.9775390625,0.9833984375,3.04296875
7,8.25,-2.58984375,8.1015625,-2.90625,1.46875,5.21484375
7,8.2578125,-1.4931640625,8.0546875,-2.431640625,1.4052734375,5.8125
7,5.3046875,-2.59375,6.90625,-0.7763671875,1.5283203125,4.82421875
7,1.759765625,-6.8515625,3.462890625,-0.442138671875,1.498046875,3.71484375
7,-3.77734375,-9.1875,2.615234375,-0.2034912109375,0.355712890625,1.9453125
7,-8.8671875,-9.4140625,2.779296875,-0.11505126953125,0.1160888671875,0.16943359375
7,-10.390625,-6.9921875,2.41015625,0.295166015625,-0.75634765625,-1.259765625
7,-7.51953125,-4.5703125,3.21875,0.83935546875,-1.75,-3.830078125
7,-5.5234375,-3.294921875,2.69921875,0.93212890625,-2.130859375,-5.41015625
7,-9.640625,-6.42578125,4.6015625,1.1708984375,-1.98828125,-5.484375
7,-9.5234375,-7.8125,6.66015625,1.6337890625,-1.9326171875,-4.7265625
7,-10.203125,-8.6640625,3.935546875,0.5390625,-1.3408203125,-3.021484375
7,-7.53125,-7.74609375,2.154296875,-0.01171875,0.0777587890625,-1.6630859375
7,-5.6796875,-9.5625,1.5810546875,-0.2247314453125,0.1768798828125,-0.328125
7,-0.65380859375,-4.83203125,3.2734375,-0.472900390625,0.5380859375,1.1416015625
7,4.77734375,-1.94140625,4.94921875,-0.728515625,0.927734375,3.056640625
7,9.1875,1.056640625,7.61328125,-1.7724609375,1.6435546875,4.8515625
7,10.359375,-0.9853515625,10.9765625,-1.4072265625,1.5595703125,5.0859375
7,4.39453125,-4.4765625,9.4921875,-1.6796875,1.55859375,4.6015625
7,-0.83935546875,-8.65625,5.60546875,-0.3759765625,1.21875,3.544921875
7,-4.984375,-13.0625,7.12890625,-0.61767578125,0.36865234375,1.8212890625
7,-6.734375,-7.1484375,1.9716796875,-0.25244140625,0.0426025390625,0.285400390625
7,-7.8515625,-6.7421875,2.09765625,0.09588623046875,-0.4443359375,-0.60302734375
7,-6.890625,-4.2734375,3.203125,0.5166015625,-1.201171875,-3.146484375
7,-6.62109375,-3.841796875,2.2265625,1.029296875,-1.28515625,-4.48046875
7,-9.578125,-5.06640625,2.57421875,1.38671875,-1.5,-4.8984375
7,-9.5390625,-8.4921875,5.7109375,1.171875,-1.4189453125,-4.44921875
7,-7.9765625,-7.03125,3.390625,1.1708984375,-1.0546875,-3.701171875
7,-8.75,-8.109375,2.712890625,1.0244140625,-0.32373046875,-2.248046875
7,-6.43359375,-8.5390625,2.04296875,0.172607421875,-0.057525634765625,-0.8798828125
7,-1.7744140625,-7.84765625,2.876953125,-0.47509765625,0.388916015625,0.1800537109375
7,2.169921875,-3.818359375,3.34375,-0.818359375,0.2120361328125,1.5224609375
7,6.2578125,-2.3359375,6.44140625,-1.7021484375,0.29833984375,3.548828125
7,10.734375,-2.212890625,8.78125,-1.1806640625,0.1832275390625,5.38671875
7,8.0546875,-1.9833984375,9.0703125,-1.8388671875,-0.260009765625,5.81640625
7,3.83203125,-3.21875,3.99609375,-0.1683349609375,0.587890625,5.20703125
7,-0.71923828125,-8.5703125,3.21484375,0.4111328125,0.29931640625,3.041015625
7,-6.8515625,-7.41796875,3.896484375,-0.1544189453125,0.190673828125,0.86083984375
7,-10.1953125,-9.09375,-0.364013671875,-0.11932373046875,-0.010650634765625,-0.38232421875
7,-8.7109375,-6.2109375,1.498046875,1.115234375,-0.2418212890625,-2.056640625
7,-8.0078125,-4.7265625,2.072265625,0.76171875,-0.97705078125,-3.541015625
7,-8.4609375,-5.81640625,2.1953125,0.6826171875,-1.193359375,-5.16796875
7,-8.546875,-7.48828125,3.85546875,0.90771484375,-0.7646484375,-5.0078125
7,-8.1484375,-6.58984375,3.494140625,1.1484375,-0.99609375,-4.1796875
7,-9.0078125,-8.375,2.958984375,0.74658203125,-0.7646484375,-2.853515625
7,-6.83203125,-8.1640625,1.4267578125,0.375,-0.1981201171875,-1.87109375
7,-6.62890625,-9.8046875,0.630859375,-0.572265625,0.10546875,0.31201171875
7,-2.8828125,-6.69140625,0.85693359375,-1.25390625,1.4296875,2.96484375
7,8.7578125,-2.87109375,7.71484375,-2.4453125,1.087890625,4.6953125
7,9.2421875,-0.5986328125,6.4921875,-1.2431640625,0.77783203125,5.015625
7,6.3828125,-3.919921875,9.265625,0.366455078125,0.078857421875,4.34375
7,1.2548828125,-7.25,3.78515625,-0.041534423828125,0.60205078125,3.935546875
7,-3.03515625,-9.765625,2.779296875,-1.017578125,0.634765625,2.251953125
7,-7.83984375,-14.328125,1.16796875,-1.06640625,0.1597900390625,0.54443359375
7,-9.03125,-9.3125,1.93359375,-0.430419921875,-0.11077880859375,-0.20458984375
7,-7.171875,-4.76953125,2.646484375,0.6572265625,-0.25146484375,-2.359375
7,-5.1796875,-3.603515625,0.6103515625,1.572265625,-0.77978515625,-4.30078125
7,-8.453125,-6.5546875,2.837890625,1.5146484375,-1.083984375,-5.22265625
7,-8.5,-9.015625,4.625,1.220703125,-0.771484375,-4.44140625
7,-9.6875,-10.1640625,3.720703125,0.86279296875,-0.6357421875,-3.556640625
7,-9.7578125,-8.65625,1.8623046875,1.107421875,-0.599609375,-2.28125
7,-7.3671875,-7.01171875,0.95751953125,-0.10760498046875,-0.17578125,-1.306640625
7,-4.43359375,-4.65625,1.384765625,-0.273681640625,0.140625,-0.50830078125
7,1.5751953125,-3.09765625,4.89453125,-0.421875,0.2066650390625,0.9951171875
7,4.87890625,-2.505859375,6.34765625,-1.64453125,0.6689453125,2.939453125
7,8.953125,-1.3525390625,8.203125,-1.76171875,1.123046875,4.5703125
7,9.15625,-2.669921875,9.8125,-2.291015625,1.84765625,5.328125
7,4.40234375,-3.845703125,8.0390625,-1.458984375,1.1494140625,4.8359375
7,0.794921875,-6.91015625,3.888671875,-0.28662109375,0.87890625,3.96875
7,-3.697265625,-9.5078125,3.900390625,-0.30029296875,0.050079345703125,1.94140625
7,-8.6640625,-10.4453125,3.935546875,-0.250244140625,-0.0159759521484375,-0.3037109375
7,-9.4921875,-7.48046875,3.552734375,0.06500244140625,-0.483642578125,-2.2578125
7,-7.90234375,-3.931640625,2.158203125,-0.1246337890625,-1.02734375,-4.203125
7,-6.62890625,-4.69921875,2.4609375,0.64013671875,-0.94921875,-4.7734375
7,-9.484375,-7.59375,4.2734375,0.63720703125,-0.396240234375,-4.40625
7,-8.7578125,-7.56640625,4.86328125,0.9404296875,-0.515625,-3.626953125
7,-6.8984375,-7.68359375,3.482421875,0.712890625,-0.8916015625,-2.396484375
7,-5.3359375,-7.57421875,2.822265625,0.41552734375,-0.12890625,-1.951171875
7,-4.16796875,-8.1953125,2.298828125,0.302490234375,0.0628662109375,-0.6826171875
7,-0.51708984375,-5.60546875,3.208984375,-0.77783203125,0.4697265625,1.04296875
7,4.203125,-6.26171875,5.68359375,-1.84375,0.9482421875,2.7109375
7,6.546875,-2.302734375,6.640625,-1.6083984375,0.8095703125,4.36328125
7,10.3046875,-1.705078125,8.171875,-1.193359375,0.8544921875,5.54296875
7,5.84765625,-4.5390625,6.05078125,0.48681640625,0.705078125,5.3046875
7,0.226318359375,-7.6796875,3.3984375,-0.32373046875,0.83642578125,3.828125
7,-2.734375,-9.34375,3.001953125,0.18115234375,0.260009765625,1.1943359375
7,-9.4140625,-11.703125,3.087890625,-0.296142578125,0.10650634765625,-0.120361328125
7,-11.671875,-6.640625,2.908203125,-0.05218505859375,-0.15869140625,-0.810546875
7,-6.59375,-5.17578125,3.373046875,0.243896484375,-0.69775390625,-2.365234375
7,-6.140625,-2.958984375,2.3125,0.654296875,-0.79248046875,-3.580078125
7,-8.84375,-5.56640625,2.728515625,0.59130859375,-1.2060546875,-4.49609375
7,-8.8203125,-5.75390625,4.6015625,0.49853515625,-0.67626953125,-4.25
7,-7.15625,-6.484375,4.42578125,1.0263671875,-0.255615234375,-3.6953125
7,-9.7265625,-8.1484375,3.08984375,0.611328125,-0.4931640625,-2.779296875
7,-6.43359375,-5.859375,1.40625,0.71044921875,-0.0894775390625,-1.728515625
7,-2.376953125,-6.3359375,2.0703125,0.08843994140625,0.20556640625,-0.7763671875
7,0.7041015625,-7.8046875,2.7734375,-0.484619140625,0.77978515625,0.87255859375
7,3.46484375,-6.875,4.91015625,-1.63671875,0.25146484375,2.5
7,8.6796875,-5.44921875,8.6015625,-1.5830078125,-0.1885986328125,3.29296875
7,8.3203125,-3.90234375,9.3984375,-2.595703125,-0.449462890625,5.0703125
7,1.7509765625,-6.3828125,6.5390625,1.021484375,-0.6806640625,4.73046875
7,1.072265625,-10.0,3.81640625,-0.1885986328125,0.5859375,4.02734375
7,-1.390625,-11.1875,2.125,-0.62646484375,0.4921875,2.501953125
7,-7.9609375,-14.9609375,4.65625,-0.208740234375,0.5166015625,0.6103515625
7,-7.27734375,-6.2265625,1.98828125,0.27490234375,-0.28125,-0.94921875
7,-7.6953125,-4.46875,0.0921630859375,0.80224609375,-0.7509765625,-2.70703125
7,-7.7421875,-4.86328125,0.56396484375,1.546875,-0.82666015625,-3.935546875
7,-8.2421875,-7.4140625,5.0546875,1.3681640625,-1.0322265625,-4.3125
7,-8.53125,-8.453125,5.51953125,0.6708984375,-0.4814453125,-3.94140625
7,-8.390625,-8.265625,2.658203125,1.1826171875,-0.787109375,-3.263671875
7,-7.859375,-7.421875,1.3671875,0.3515625,-0.62939453125,-2.583984375
7,-5.25,-7.20703125,0.84765625,0.681640625,0.0894775390625,-1.8623046875
7,-3.72265625,-8.59375,1.72265625,0.1746826171875,0.059661865234375,-0.1544189453125
7,0.359130859375,-8.765625,3.3515625,-0.0181121826171875,0.043670654296875,0.88720703125
7,4.67578125,-3.74609375,4.6328125,-0.419677734375,0.560546875,2.580078125
7,7.55078125,-3.220703125,5.92578125,-0.62548828125,1.140625,4.42578125
7,10.625,-4.66015625,9.7421875,-1.7333984375,1.130859375,5.33203125
7,5.328125,-4.21875,5.56640625,-1.6748046875,0.8115234375,5.08203125
7,1.0126953125,-5.4609375,2.142578125,0.71484375,1.5439453125,4.33984375
7,-3.0234375,-7.06640625,3.873046875,-0.325927734375,0.61376953125,2.0546875
7,-8.9296875,-9.71875,2.8125,-0.5146484375,0.1480712890625,-0.208740234375
7,-9.8125,-7.5859375,2.841796875,0.5419921875,-0.69677734375,-2.12109375
7,-8.5078125,-4.375,3.26953125,1.2529296875,-1.251953125,-4.390625
7,-8.0546875,-4.90625,3.541015625,1.294921875,-1.5927734375,-5.62109375
7,-8.8359375,-8.671875,5.16015625,1.525390625,-1.560546875,-5.21484375
7,-9.796875,-7.7734375,3.76953125,2.005859375,-1.4677734375,-3.998046875
7,-9.953125,-8.921875,3.3359375,1.310546875,-0.82470703125,-2.58984375
7,-8.7578125,-7.71484375,2.78515625,1.0595703125,-0.045806884765625,-1.5615234375
7,-4.3828125,-7.22265625,3.181640625,0.278076171875,0.377197265625,-0.2034912109375
7,1.287109375,-4.03125,6.11328125,-0.012786865234375,0.4462890625,1.728515625
7,6.703125,-1.4150390625,6.1953125,-1.8955078125,0.91845703125,3.34765625
7,9.234375,0.005985260009765625,8.984375,-1.8369140625,1.3505859375,5.08203125
7,7.9375,-1.818359375,10.0078125,-2.099609375,0.9169921875,5.15234375
7,5.79296875,-2.171875,7.703125,-2.115234375,0.62841796875,4.53515625
7,0.423828125,-7.73046875,5.50390625,-0.1864013671875,0.6123046875,3.673828125
7,-5.6015625,-9.8984375,5.796875,-0.10760498046875,0.185302734375,1.7392578125
7,-10.1796875,-12.2578125,2.271484375,-0.57421875,-0.0777587890625,-0.5771484375
7,-7.03125,-6.96484375,2.001953125,0.167236328125,-0.496337890625,-2.69140625
7,-6.46875,-4.70703125,1.6171875,0.99609375,-0.5419921875,-4.7421875
7,-8.328125,-5.33984375,2.353515625,1.8076171875,-0.43896484375,-5.16796875
7,-8.6875,-8.2265625,2.755859375,1.0986328125,-0.701171875,-4.95703125
7,-7.41015625,-8.9921875,3.197265625,0.85107421875,-0.59033203125,-3.298828125
7,-7.55859375,-7.59375,2.068359375,0.2332763671875,0.1768798828125,-2.197265625
7,-7.41015625,-6.2265625,-0.099365234375,0.46875,0.059661865234375,-1.80859375
7,-3.068359375,-3.61328125,1.1171875,-0.07562255859375,-0.1480712890625,0.11822509765625
7,3.611328125,-4.21875,4.08203125,-0.477294921875,0.15869140625,2.7421875
7,6.59375,-4.23046875,6.78125,-1.8427734375,0.470947265625,4.38671875
7,7.9921875,-1.4365234375,8.125,-0.4560546875,-0.1768798828125,5.4140625
7,7.76953125,-4.8046875,12.171875,-0.7734375,-0.19384765625,5.22265625
7,2.052734375,-9.2578125,4.1171875,-0.442138671875,0.8916015625,4.98046875
7,-4.26171875,-13.9765625,4.2578125,0.342041015625,0.271728515625,3.396484375
7,-9.859375,-16.734375,0.72412109375,-0.52001953125,0.41015625,0.7880859375
7,-9.5546875,-8.8125,0.7900390625,0.962890625,0.053253173828125,-0.82861328125
7,-9.25,-5.859375,2.02734375,1.068359375,-0.460205078125,-4.0859375
7,-5.37890625,-4.48046875,2.20703125,1.193359375,-0.88720703125,-5.359375
7,-8.1640625,-8.03125,3.458984375,1.0322265625,-0.8212890625,-5.42578125
7,-9.4375,-9.09375,3.951171875,0.85009765625,-0.53564453125,-4.78125
7,-11.7265625,-8.171875,1.271484375,0.93310546875,-1.181640625,-3.91796875
7,-8.65625,-6.40234375,1.14453125,0.630859375,-0.073486328125,-2.41015625
7,-6.7421875,-7.12890625,1.599609375,-0.314208984375,0.29931640625,-0.505859375
7,-2.822265625,-10.9375,2.3203125,-0.3515625,-0.012786865234375,1.736328125
7,1.947265625,-4.05078125,3.3125,-1.7734375,-0.022369384765625,3.80078125
7,6.8984375,-1.4619140625,7.08203125,-1.779296875,-0.78173828125,5.37109375
7,9.75,-3.6171875,8.9375,-1.359375,-0.2301025390625,5.57421875
7,4.0,-4.6953125,6.12109375,-0.38037109375,-0.46435546875,5.15234375
7,-0.051483154296875,-6.19140625,0.53515625,-0.3291015625,-0.19921875,3.8671875
7,-4.83203125,-9.34375,-0.125732421875,0.5166015625,0.1278076171875,1.34375
7,-10.5546875,-9.234375,1.2158203125,-0.460205078125,0.138427734375,-0.28662109375
7,-10.96875,-6.421875,1.5263671875,0.74267578125,0.01171875,-2.099609375
7,-4.90234375,-4.81640625,2.421875,0.4462890625,-0.307861328125,-4.23828125
7,-6.0625,-4.84765625,1.9140625,0.96630859375,-0.402587890625,-5.234375
7,-8.5703125,-9.2109375,2.71875,0.96728515625,-0.56689453125,-5.05859375
7,-10.5859375,-8.5,3.4453125,1.1025390625,-0.51220703125,-4.1015625
7,-9.53125,-7.8359375,1.646484375,0.60498046875,-0.043670654296875,-2.982421875
7,-8.40625,-8.7578125,1.6650390625,0.64990234375,0.354736328125,-2.068359375
7,-5.41015625,-9.6484375,1.052734375,0.8681640625,0.220458984375,-1.099609375
7,-0.265869140625,-7.71875,2.982421875,-0.06500244140625,-0.00852203369140625,0.6474609375
7,3.5,-5.93359375,4.54296875,-0.7041015625,0.2578125,2.521484375
7,6.95703125,-3.125,6.03515625,-3.130859375,0.52099609375,4.22265625
7,10.4453125,0.59130859375,8.3203125,-3.21875,-0.15869140625,5.015625
7,7.8828125,-3.005859375,7.09765625,-4.05859375,-1.3115234375,4.7890625
7,2.83984375,-4.80859375,3.087890625,0.314208984375,-1.58203125,4.5078125
7,0.369873046875,-6.51171875,-1.080078125,1.3935546875,-0.57958984375,3.240234375
7,-5.32421875,-9.015625,-0.326904296875,0.88525390625,-0.0010652542114257812,0.892578125
7,-8.9140625,-10.5546875,-1.2900390625,-0.460205078125,0.04473876953125,0.3037109375
7,-8.8828125,-6.53125,0.14599609375,0.4111328125,0.33447265625,-1.6669921875
7,-5.796875,-4.6875,0.9814453125,0.41015625,-0.01171875,-3.400390625
7,-9.1015625,-4.56640625,1.1767578125,0.99609375,-0.036224365234375,-4.3984375
7,-8.4921875,-8.484375,3.33203125,1.251953125,-0.043670654296875,-4.37890625
7,-9.828125,-8.4765625,3.220703125,0.62939453125,-0.0543212890625,-4.15234375
7,-7.7578125,-7.83203125,0.86572265625,0.7509765625,0.2919921875,-3.333984375
7,-7.41015625,-7.5625,-0.29443359375,0.31103515625,0.79150390625,-2.625
7,-5.96484375,-8.8828125,-0.44287109375,0.80859375,0.46875,-2.138671875
7,-2.44921875,-5.98046875,0.47998046875,-0.1651611328125,-0.5419921875,0.036224365234375
7,2.193359375,-4.31640625,1.9306640625,-1.2626953125,-0.3525390625,3.013671875
7,4.76171875,-4.98046875,4.7421875,-0.42822265625,-0.998046875,4.56640625
7,9.078125,0.2022705078125,9.0390625,0.669921875,-1.5,5.5
7,8.359375,-3.466796875,8.8515625,0.342041015625,-1.9365234375,5.57421875
7,1.28125,-10.796875,0.448974609375,0.09588623046875,0.155517578125,4.55859375
7,-3.146484375,-15.515625,0.67529296875,-0.80419921875,0.05645751953125,2.736328125
7,-9.4375,-12.7265625,-1.2939453125,0.426025390625,0.3291015625,0.7373046875
7,-10.7265625,-7.69921875,-0.51220703125,0.27685546875,0.225830078125,-0.459228515625
7,-5.6171875,-5.25,1.2705078125,1.1953125,-0.0010652542114257812,-2.455078125
7,-5.5234375,-4.97265625,2.556640625,0.1778564453125,-0.70751953125,-3.89453125
7,-8.9921875,-5.2734375,2.0703125,0.88720703125,-0.36962890625,-4.84375
7,-8.5703125,-7.609375,3.826171875,0.55810546875,-0.414306640625,-4.5390625
7,-10.6796875,-7.66796875,3.98828125,1.2919921875,-0.120361328125,-3.560546875
7,-10.3203125,-8.546875,1.962890625,0.65185546875,0.108642578125,-2.546875
7,-7.234375,-7.31640625,0.05865478515625,0.96533203125,0.3046875,-1.4892578125
7,-4.16796875,-7.71875,1.0166015625,0.14599609375,0.1715087890625,-1.3642578125
7,0.478759765625,-8.015625,2.966796875,-0.0863037109375,0.178955078125,-0.07672119140625
7,3.0078125,-6.01953125,4.2890625,-1.2333984375,0.2098388671875,2.66015625
7,5.9609375,-6.54296875,5.67578125,-0.97802734375,-0.68505859375,4.9921875
7,9.0546875,-3.484375,8.078125,-3.267578125,-0.560546875,5.76953125
7,6.390625,-3.822265625,9.078125,0.38671875,-0.599609375,5.6796875
7,-0.69921875,-7.4921875,4.2890625,-0.6669921875,-0.3408203125,4.78125
7,-5.79296875,-10.109375,-0.7412109375,0.273681640625,0.3984375,1.65625
7,-11.96875,-13.1875,-1.1943359375,-0.150146484375,0.237548828125,-0.272705078125
7,-15.4609375,-10.921875,-1.4619140625,-0.0426025390625,-0.371826171875,-1.763671875
7,-6.3359375,-6.0078125,1.5458984375,1.767578125,-0.297119140625,-4.0234375
7,-5.56640625,-4.98046875,2.85546875,2.044921875,-1.0634765625,-5.52734375
7,-8.734375,-7.51171875,2.48828125,2.490234375,-1.271484375,-5.36328125
7,-9.828125,-9.578125,2.140625,1.6796875,-1.095703125,-4.20703125
7,-12.046875,-9.8125,1.212890625,1.388671875,-0.72021484375,-3.29296875
7,-8.3359375,-8.6015625,1.458984375,0.6689453125,-0.1395263671875,-2.158203125
7,-3.775390625,-7.41796875,0.54833984375,-0.49951171875,0.437744140625,-0.46240234375
7,0.318359375,-7.51953125,2.240234375,-0.55078125,0.6220703125,1.5634765625
7,3.626953125,-2.298828125,4.10546875,-2.478515625,0.70751953125,3.615234375
7,9.4296875,0.53271484375,6.59375,-2.607421875,0.31201171875,5.44921875
7,11.3125,-1.4501953125,8.765625,0.53564453125,0.583984375,6.4609375
7,5.328125,-3.37890625,3.7890625,-0.421875,1.501953125,4.98828125
7,0.7626953125,-7.85546875,2.548828125,-1.10546875,0.220458984375,3.58203125
7,-6.984375,-14.8671875,2.98828125,-1.0107421875,-0.2301025390625,1.5390625
7,-12.1015625,-12.71875,1.8037109375,0.0777587890625,-0.031951904296875,-0.038360595703125
7,-9.9453125,-6.31640625,2.59375,0.354736328125,-0.242919921875,-2.220703125
7,-5.703125,-4.62109375,2.22265625,0.83642578125,-0.76171875,-4.0625
7,-7.49609375,-5.85546875,2.0546875,0.28759765625,-1.2685546875,-5.47265625
7,-8.8984375,-7.1015625,2.841796875,1.9140625,-1.1513671875,-5.0703125
7,-9.6328125,-7.359375,2.81640625,1.720703125,-1.1513671875,-3.8359375
7,-10.03125,-6.66796875,2.58984375,0.31005859375,-1.02734375,-2.865234375
7,-6.91015625,-7.7109375,2.06640625,0.529296875,-0.1778564453125,-2.0625
7,-3.51171875,-7.37109375,2.685546875,0.2685546875,0.3994140625,-0.61376953125
7,-0.5029296875,-6.8671875,3.0234375,0.0703125,0.5263671875,1.3388671875
7,4.59765625,-4.1328125,4.2265625,-1.3408203125,0.77880859375,3.310546875
7,10.4921875,-1.2353515625,8.109375,-2.216796875,0.59130859375,4.5625
7,10.15625,-1.1767578125,10.015625,-2.453125,1.126953125,5.32421875
7,5.90234375,-3.298828125,6.16015625,0.007457733154296875,0.90673828125,5.3203125
7,2.345703125,-4.6484375,3.357421875,-1.5908203125,0.88525390625,4.265625
7,-1.5576171875,-6.7578125,1.1533203125,0.1214599609375,0.1417236328125,2.146484375
7,-7.046875,-8.6015625,2.095703125,-0.53564453125,-0.00319671630859375,0.024505615234375
7,-9.2890625,-4.91796875,1.822265625,0.319580078125,-0.06500244140625,-0.76611328125
7,-7.359375,-5.4140625,2.95703125,0.88720703125,-0.325927734375,-2.681640625
7,-8.0390625,-4.57421875,2.1484375,1.107421875,-0.424072265625,-4.0
7,-8.5234375,-5.546875,1.818359375,0.97705078125,-0.8447265625,-5.25
7,-9.8828125,-7.26953125,2.265625,0.9140625,-0.7255859375,-4.828125
7,-9.1015625,-7.76171875,3.15625,1.1953125,-0.61572265625,-3.685546875
7,-10.609375,-7.609375,2.04296875,0.80859375,-0.58154296875,-2.83203125
7,-6.19921875,-6.4609375,1.04296875,0.8544921875,-0.06390380859375,-1.9365234375
7,-1.92578125,-6.73046875,1.970703125,0.283447265625,-0.0170440673828125,-0.7763671875
7,2.265625,-9.2109375,3.703125,-0.3525390625,0.114013671875,1.1484375
7,5.765625,-6.140625,3.75,-1.822265625,-0.12249755859375,2.9296875
7,10.28125,-2.095703125,5.28515625,-1.4931640625,-0.39306640625,4.34375
7,12.140625,-1.09375,7.43359375,-1.615234375,-0.3525390625,5.58984375
7,6.51953125,-3.80078125,4.84375,-0.273681640625,-0.48046875,5.2265625
7,1.705078125,-6.39453125,3.322265625,6.26953125,0.057525634765625,1.869140625
7,-1.97265625,-8.8828125,1.283203125,14.4140625,-1.73046875,-3.609375
7,-7.4921875,-17.90625,-4.953125,2.404296875,-4.60546875,-1.494140625
