ActivityID,AccelX,AccelY,AccelZ,GyroX,GyroY,GyroZ
4,-8.3046875,-3.171875,4.1328125,0.3642578125,0.2247314453125,0.19287109375
4,-8.640625,-2.765625,3.966796875,-0.0234375,0.13427734375,0.24072265625
4,-8.8671875,-3.09375,3.478515625,-0.29296875,0.0894775390625,0.1566162109375
4,-9.046875,-3.125,3.494140625,-0.0298309326171875,0.150146484375,0.12890625
4,-9.15625,-2.841796875,3.404296875,-0.043670654296875,0.05218505859375,0.1331787109375
4,-8.96875,-2.66796875,3.375,-0.1746826171875,-0.0863037109375,0.050079345703125
4,-8.640625,-2.578125,3.357421875,0.09161376953125,-0.031951904296875,0.09478759765625
4,-9.234375,-2.51953125,3.447265625,0.184326171875,0.137451171875,0.2685546875
4,-8.4765625,-2.162109375,3.478515625,0.31103515625,0.1885986328125,0.07244873046875
4,-8.8515625,-1.6865234375,3.583984375,0.19921875,0.085205078125,0.03302001953125
4,-8.4140625,-1.8408203125,3.427734375,0.1832275390625,0.0394287109375,-0.06390380859375
4,-9.359375,-1.75,3.45703125,0.15234375,0.059661865234375,-0.0276947021484375
4,-9.0078125,-1.7470703125,3.509765625,0.32177734375,0.055389404296875,-0.273681640625
4,-8.7578125,-1.0791015625,3.66796875,0.47509765625,0.0394287109375,-0.22265625
4,-9.0546875,-1.203125,3.533203125,0.266357421875,-0.020233154296875,-0.024505615234375
4,-8.953125,-1.2509765625,3.267578125,0.1800537109375,-0.1448974609375,-0.059661865234375
4,-9.0546875,-1.384765625,2.98828125,-0.1981201171875,-0.10546875,0.010650634765625
4,-9.1953125,-1.5966796875,3.072265625,-0.03729248046875,0.0394287109375,-0.0021305084228515625
4,-9.2421875,-1.2880859375,3.224609375,-0.10546875,0.0660400390625,-0.0053253173828125
4,-9.1015625,-1.1123046875,3.556640625,-0.197021484375,0.04901123046875,0.0777587890625
4,-9.578125,-0.9384765625,3.791015625,-0.308837890625,-0.1097412109375,0.2418212890625
4,-8.890625,-0.86181640625,3.62109375,-0.529296875,-0.2332763671875,0.2822265625
4,-8.53125,-1.423828125,3.36328125,-0.60595703125,-0.1417236328125,0.4453125
4,-8.953125,-1.650390625,3.462890625,-0.55615234375,-0.0276947021484375,0.42822265625
4,-9.03125,-1.580078125,3.69140625,-0.58251953125,-0.0543212890625,0.29296875
4,-8.71875,-1.3203125,3.912109375,-0.64990234375,-0.1278076171875,0.1864013671875
4,-8.65625,-1.5615234375,3.84765625,-0.48681640625,-0.022369384765625,0.2269287109375
4,-8.6171875,-1.4990234375,4.0234375,-0.390869140625,-0.0159759521484375,0.160888671875
4,-8.8125,-1.5986328125,4.046875,-0.361083984375,-0.038360595703125,0.08843994140625
4,-8.71875,-1.6103515625,4.078125,-0.1629638671875,-0.02557373046875,-0.007457733154296875
4,-8.8671875,-1.6064453125,4.1953125,-0.047943115234375,-0.01384735107421875,-0.00959014892578125
4,-8.875,-1.4990234375,3.94140625,0.031951904296875,-0.07672119140625,-0.1246337890625
4,-8.7734375,-1.3564453125,3.744140625,0.07672119140625,-0.03729248046875,-0.1171875
4,-8.7890625,-1.4248046875,3.611328125,0.1512451171875,0.02557373046875,-0.10015869140625
4,-8.96875,-1.3671875,3.814453125,0.15771484375,0.10015869140625,-0.02130126953125
4,-8.71875,-1.6787109375,3.798828125,0.33447265625,0.120361328125,-0.01171875
4,-8.796875,-1.712890625,3.70703125,0.2386474609375,0.04046630859375,-0.0298309326171875
4,-8.7578125,-1.8857421875,3.4375,0.2685546875,0.02130126953125,-0.1278076171875
4,-9.015625,-1.6962890625,3.39453125,0.178955078125,0.01171875,-0.2066650390625
4,-8.9296875,-1.5419921875,3.427734375,0.31640625,0.0777587890625,-0.2705078125
4,-8.8515625,-1.4130859375,3.734375,0.28662109375,0.1309814453125,-0.1395263671875
4,-8.84375,-1.38671875,3.8359375,0.283447265625,0.0809326171875,-0.07989501953125
4,-9.0,-1.5732421875,3.619140625,0.167236328125,0.007457733154296875,-0.046875
4,-8.921875,-1.7216796875,3.2421875,0.078857421875,-0.020233154296875,-0.1171875
4,-8.875,-1.7373046875,3.1328125,0.14599609375,0.1011962890625,-0.1214599609375
4,-8.8515625,-1.703125,3.28125,0.1895751953125,0.19287109375,-0.11505126953125
4,-9.0078125,-1.794921875,3.537109375,0.225830078125,0.19384765625,-0.10760498046875
4,-8.9375,-1.7734375,3.638671875,0.172607421875,0.059661865234375,-0.11932373046875
4,-8.9921875,-1.8876953125,3.27734375,0.1097412109375,0.0298309326171875,-0.11822509765625
4,-9.0859375,-2.041015625,3.103515625,0.27587890625,0.11505126953125,-0.13525390625
4,-8.984375,-1.9873046875,2.986328125,0.39404296875,0.1885986328125,-0.17041015625
4,-9.265625,-2.076171875,3.013671875,0.379150390625,0.2120361328125,-0.120361328125
4,-8.9296875,-1.958984375,3.001953125,0.435791015625,0.1480712890625,-0.15869140625
4,-9.1328125,-1.97265625,2.93359375,0.384521484375,0.1097412109375,-0.1043701171875
4,-9.2734375,-2.10546875,2.748046875,0.34619140625,0.085205078125,-0.1363525390625
4,-9.2578125,-2.05859375,2.578125,0.3740234375,0.07989501953125,-0.14697265625
4,-9.09375,-1.94140625,2.587890625,0.249267578125,-0.0063934326171875,-0.03515625
4,-9.3046875,-2.203125,2.458984375,-0.132080078125,-0.07989501953125,0.13525390625
4,-8.921875,-2.37109375,2.55078125,-0.28857421875,-0.067138671875,0.1480712890625
4,-9.171875,-2.349609375,2.759765625,-0.067138671875,0.0021305084228515625,0.21630859375
4,-9.1796875,-2.169921875,3.123046875,-0.0543212890625,-0.03729248046875,0.05218505859375
4,-8.859375,-1.744140625,3.337890625,0.05218505859375,-0.046875,0.03302001953125
4,-9.2578125,-1.6162109375,3.576171875,0.250244140625,-0.04046630859375,0.04473876953125
4,-9.1640625,-1.3369140625,3.458984375,0.289794921875,-0.1214599609375,-0.020233154296875
4,-8.921875,-1.1328125,3.294921875,0.243896484375,-0.1363525390625,-0.047943115234375
4,-9.0625,-0.896484375,3.32421875,0.140625,-0.10546875,-0.04901123046875
4,-8.8359375,-0.6572265625,3.431640625,0.0276947021484375,-0.0809326171875,-0.047943115234375
4,-8.84375,-0.486083984375,3.666015625,-0.1640625,-0.0809326171875,0.01491546630859375
4,-8.7265625,-0.87890625,3.873046875,-0.18212890625,-0.0170440673828125,0.108642578125
4,-8.96875,-1.0126953125,4.00390625,0.0628662109375,0.057525634765625,0.11932373046875
4,-8.7734375,-0.9423828125,3.9140625,0.08416748046875,-0.0266265869140625,-0.0063934326171875
4,-9.2265625,-0.8056640625,3.583984375,-0.1640625,-0.1480712890625,-0.07989501953125
4,-8.984375,-0.89306640625,3.416015625,-0.33349609375,-0.149169921875,-0.108642578125
4,-8.6953125,-0.96240234375,3.490234375,-0.38134765625,-0.0010652542114257812,0.090576171875
4,-8.671875,-1.021484375,3.66015625,-0.319580078125,0.0745849609375,0.2568359375
4,-8.8359375,-1.3583984375,3.6640625,-0.3515625,0.045806884765625,0.2418212890625
4,-9.0078125,-1.5791015625,3.68359375,-0.283447265625,0.0628662109375,0.2130126953125
4,-8.71875,-1.6484375,3.755859375,-0.172607421875,0.057525634765625,0.1309814453125
4,-9.0,-1.474609375,3.818359375,-0.24609375,-0.007457733154296875,0.0809326171875
4,-9.0390625,-1.3779296875,3.63671875,-0.254638671875,-0.1011962890625,-0.05859375
4,-8.921875,-1.3076171875,3.521484375,-0.267333984375,-0.0980224609375,-0.0191802978515625
4,-8.953125,-1.3515625,3.49609375,-0.234375,-0.05645751953125,0.04901123046875
4,-8.96875,-1.3466796875,3.47265625,-0.31005859375,-0.06390380859375,0.11505126953125
4,-8.8203125,-1.5166015625,3.390625,-0.31201171875,-0.0266265869140625,0.1832275390625
4,-8.8828125,-1.703125,3.521484375,-0.3046875,0.02130126953125,0.2354736328125
4,-9.0078125,-1.7490234375,3.634765625,-0.3994140625,-0.05859375,0.125732421875
4,-9.015625,-1.771484375,3.66796875,-0.307861328125,-0.0287628173828125,0.06072998046875
4,-8.8203125,-1.744140625,3.716796875,-0.102294921875,0.02130126953125,0.0191802978515625
4,-8.7421875,-1.76953125,3.615234375,0.05859375,0.073486328125,0.0021305084228515625
4,-8.6875,-1.78125,3.380859375,0.1885986328125,0.07135009765625,-0.0298309326171875
4,-8.6171875,-1.814453125,3.03515625,0.108642578125,0.05859375,-0.07244873046875
4,-9.46875,-2.099609375,3.10546875,0.219482421875,0.2034912109375,-0.0181121826171875
4,-9.53125,-1.9287109375,2.958984375,0.2247314453125,0.14599609375,-0.272705078125
4,-9.359375,-1.7177734375,3.056640625,0.3515625,0.1864013671875,-0.31640625
4,-9.2890625,-1.2666015625,3.3125,0.371826171875,0.022369384765625,-0.307861328125
4,-9.1953125,-1.478515625,3.107421875,0.1864013671875,-0.05218505859375,-0.05218505859375
4,-9.015625,-1.669921875,2.892578125,0.19287109375,-0.0287628173828125,0.0021305084228515625
4,-9.0078125,-1.810546875,2.87109375,0.1512451171875,0.0426025390625,0.07672119140625
4,-9.1171875,-1.802734375,2.98828125,0.08734130859375,0.05645751953125,0.047943115234375
4,-9.046875,-1.7734375,3.0390625,0.0298309326171875,0.01384735107421875,-0.0298309326171875
4,-9.1875,-1.6591796875,3.181640625,-0.0181121826171875,-0.0010652542114257812,-0.0266265869140625
4,-9.0,-1.580078125,3.14453125,0.007457733154296875,-0.007457733154296875,-0.0063934326171875
4,-9.0546875,-1.6943359375,3.166015625,-0.010650634765625,0.0,0.038360595703125
4,-9.0859375,-1.7119140625,3.09765625,-0.0159759521484375,-0.0010652542114257812,0.02130126953125
4,-9.0625,-1.6923828125,3.162109375,-0.031951904296875,-0.00852203369140625,0.0181121826171875
4,-9.078125,-1.7080078125,3.171875,-0.0628662109375,-0.036224365234375,0.01384735107421875
4,-9.0,-1.64453125,3.203125,-0.03729248046875,-0.050079345703125,0.004261016845703125
4,-9.03125,-1.728515625,3.15234375,-0.034088134765625,-0.0394287109375,0.0159759521484375
4,-8.9609375,-1.701171875,3.1796875,-0.0063934326171875,-0.02557373046875,0.0053253173828125
4,-9.015625,-1.740234375,3.23828125,-0.0159759521484375,-0.0234375,0.007457733154296875
4,-8.9765625,-1.7607421875,3.208984375,-0.0308990478515625,-0.012786865234375,-0.0159759521484375
4,-8.953125,-1.685546875,3.25,0.0181121826171875,0.004261016845703125,-0.02130126953125
4,-9.03125,-1.69140625,3.353515625,-0.02557373046875,-0.00852203369140625,-0.00959014892578125
4,-9.015625,-1.69140625,3.29296875,0.03302001953125,0.01171875,0.012786865234375
4,-9.0,-1.76171875,3.30859375,0.022369384765625,0.00959014892578125,0.020233154296875
4,-9.0234375,-1.7294921875,3.341796875,-0.004261016845703125,-0.012786865234375,0.00959014892578125
4,-8.9453125,-1.8134765625,3.25,0.02557373046875,0.010650634765625,0.0
4,-9.015625,-1.703125,3.283203125,-0.01171875,-0.0021305084228515625,-0.0053253173828125
4,-8.9609375,-1.61328125,3.3125,0.004261016845703125,0.00319671630859375,-0.004261016845703125
4,-9.046875,-1.6181640625,3.36328125,-0.0159759521484375,-0.012786865234375,0.01491546630859375
4,-8.953125,-1.6787109375,3.26171875,0.004261016845703125,0.0,0.0191802978515625
4,-8.984375,-1.7138671875,3.322265625,0.0021305084228515625,0.0063934326171875,0.0191802978515625
4,-8.9609375,-1.68359375,3.30078125,-0.0276947021484375,-0.00959014892578125,-0.00319671630859375
4,-9.0859375,-1.626953125,3.255859375,-0.024505615234375,0.0010652542114257812,-0.0191802978515625
4,-8.953125,-1.546875,3.326171875,-0.0266265869140625,0.0010652542114257812,0.010650634765625
4,-8.96875,-1.6767578125,3.12890625,-0.024505615234375,0.02557373046875,0.0159759521484375
4,-8.9609375,-1.6552734375,3.109375,-0.0234375,0.046875,0.004261016845703125
4,-8.9453125,-1.6474609375,3.259765625,-0.0298309326171875,0.0276947021484375,0.0
4,-9.0703125,-1.755859375,3.16015625,-0.007457733154296875,0.0191802978515625,-0.0170440673828125
4,-9.0234375,-1.6904296875,3.2265625,-0.0159759521484375,-0.004261016845703125,-0.0266265869140625
4,-9.03125,-1.6689453125,3.177734375,-0.0426025390625,-0.022369384765625,-0.01491546630859375
4,-9.1484375,-1.75390625,3.146484375,0.0,0.01491546630859375,0.0010652542114257812
4,-8.9765625,-1.681640625,3.162109375,0.01171875,0.03729248046875,0.0234375
4,-9.0703125,-1.76171875,3.189453125,-0.007457733154296875,0.0276947021484375,0.01384735107421875
4,-9.0546875,-1.7236328125,3.216796875,-0.02557373046875,0.01171875,0.00319671630859375
4,-8.984375,-1.6875,3.169921875,-0.03729248046875,-0.007457733154296875,0.0
4,-9.0546875,-1.755859375,3.064453125,-0.004261016845703125,0.01384735107421875,0.00959014892578125
4,-9.0,-1.80078125,3.0546875,0.0,0.0287628173828125,-0.0159759521484375
4,-9.1484375,-1.8056640625,3.083984375,0.0021305084228515625,0.036224365234375,-0.038360595703125
4,-9.140625,-1.673828125,3.0859375,-0.0276947021484375,0.0191802978515625,-0.036224365234375
4,-9.125,-1.66015625,3.078125,0.004261016845703125,0.0266265869140625,0.0
4,-9.0234375,-1.7314453125,3.02734375,0.01384735107421875,0.03515625,0.0298309326171875
4,-9.1015625,-1.8515625,3.03125,0.036224365234375,0.04046630859375,0.0298309326171875
4,-9.1171875,-1.865234375,3.107421875,0.02557373046875,0.007457733154296875,-0.0010652542114257812
4,-9.0390625,-1.78125,3.0234375,0.02557373046875,-0.0053253173828125,-0.01384735107421875
4,-9.171875,-1.6748046875,3.078125,0.0181121826171875,-0.0191802978515625,0.004261016845703125
4,-9.0703125,-1.6533203125,3.052734375,0.047943115234375,-0.0159759521484375,0.004261016845703125
4,-9.0546875,-1.61328125,3.044921875,0.043670654296875,-0.01171875,0.024505615234375
4,-9.0625,-1.6806640625,3.04296875,0.07135009765625,0.007457733154296875,0.0181121826171875
4,-9.078125,-1.7060546875,3.126953125,0.108642578125,0.0191802978515625,0.00852203369140625
4,-9.1171875,-1.6630859375,3.177734375,0.120361328125,-0.0053253173828125,-0.024505615234375
4,-9.078125,-1.5791015625,2.998046875,0.10333251953125,-0.01384735107421875,-0.046875
4,-9.171875,-1.5888671875,2.908203125,0.1651611328125,0.04473876953125,-0.055389404296875
4,-9.125,-1.4638671875,2.98046875,0.125732421875,0.047943115234375,-0.02557373046875
4,-9.1796875,-1.478515625,2.85546875,0.053253173828125,0.012786865234375,-0.0053253173828125
4,-9.265625,-1.4609375,2.765625,-0.0276947021484375,-0.010650634765625,0.0
4,-9.265625,-1.45703125,2.87109375,-0.07135009765625,-0.0191802978515625,0.0287628173828125
4,-9.4609375,-1.3310546875,2.98046875,-0.20556640625,-0.1268310546875,0.07135009765625
4,-9.2734375,-1.3251953125,2.935546875,-0.2237548828125,-0.1864013671875,0.09478759765625
4,-8.859375,-1.24609375,2.94140625,-0.35791015625,-0.149169921875,0.207763671875
4,-8.859375,-1.4931640625,3.099609375,-0.337646484375,-0.059661865234375,0.2003173828125
4,-8.96875,-1.244140625,3.56640625,-0.361083984375,-0.0980224609375,0.185302734375
4,-8.96875,-1.4169921875,3.37109375,-0.47412109375,-0.143798828125,0.155517578125
4,-8.8828125,-1.515625,3.26171875,-0.53564453125,-0.11077880859375,0.13427734375
4,-8.8203125,-1.5673828125,3.400390625,-0.448486328125,-0.0234375,0.1363525390625
4,-9.0234375,-1.5009765625,3.65625,-0.366455078125,0.0191802978515625,0.15771484375
4,-9.078125,-1.576171875,3.734375,-0.2939453125,0.012786865234375,0.1448974609375
4,-8.9453125,-1.6181640625,3.82421875,-0.1864013671875,-0.007457733154296875,0.1043701171875
4,-8.8203125,-1.5947265625,3.759765625,-0.11505126953125,-0.057525634765625,0.02557373046875
4,-8.984375,-1.5205078125,3.583984375,-0.0394287109375,-0.0308990478515625,-0.01384735107421875
4,-8.7734375,-1.427734375,3.50390625,0.043670654296875,0.010650634765625,-0.004261016845703125
4,-8.8828125,-1.6220703125,3.552734375,0.08734130859375,0.0660400390625,0.0287628173828125
4,-9.0,-1.6435546875,3.705078125,0.09375,-0.0021305084228515625,-0.06072998046875
4,-8.90625,-1.6533203125,3.484375,0.1268310546875,-0.0308990478515625,-0.1448974609375
4,-8.9921875,-1.5244140625,3.35546875,0.1981201171875,-0.01384735107421875,-0.185302734375
4,-8.984375,-1.451171875,3.2578125,0.1864013671875,0.038360595703125,-0.1011962890625
4,-8.9453125,-1.57421875,3.318359375,0.225830078125,0.108642578125,-0.01491546630859375
4,-9.0546875,-1.658203125,3.455078125,0.225830078125,0.08203125,-0.0170440673828125
4,-9.0859375,-1.5634765625,3.42578125,0.19287109375,0.01384735107421875,-0.073486328125
4,-9.078125,-1.4892578125,3.33984375,0.1949462890625,0.0010652542114257812,-0.050079345703125
4,-9.0859375,-1.41015625,3.38671875,0.234375,-0.00852203369140625,-0.0777587890625
4,-8.75,-1.2734375,3.353515625,0.184326171875,-0.01171875,-0.00959014892578125
4,-9.1171875,-1.505859375,3.26953125,-0.036224365234375,-0.06500244140625,-0.004261016845703125
4,-8.8203125,-1.4326171875,3.25,-0.09478759765625,-0.057525634765625,-0.055389404296875
4,-8.953125,-1.3447265625,3.375,-0.102294921875,0.0010652542114257812,0.0010652542114257812
4,-8.9921875,-1.376953125,3.607421875,-0.022369384765625,0.0511474609375,0.0266265869140625
4,-8.8515625,-1.4716796875,3.712890625,0.012786865234375,0.0660400390625,0.0287628173828125
4,-8.9296875,-1.33984375,3.775390625,0.0276947021484375,0.0308990478515625,0.00959014892578125
4,-8.9140625,-1.4189453125,3.533203125,0.01491546630859375,-0.00959014892578125,-0.0159759521484375
4,-8.953125,-1.44140625,3.3515625,-0.004261016845703125,0.0,-0.0181121826171875
4,-8.9453125,-1.4189453125,3.322265625,-0.004261016845703125,0.0266265869140625,-0.04046630859375
4,-8.9296875,-1.4423828125,3.384765625,0.0266265869140625,0.04901123046875,-0.01171875
4,-8.921875,-1.53125,3.341796875,-0.04046630859375,0.02557373046875,-0.0159759521484375
4,-8.9765625,-1.53125,3.37890625,-0.01491546630859375,0.0191802978515625,-0.034088134765625
4,-8.9140625,-1.6630859375,3.3671875,0.04473876953125,0.055389404296875,-0.022369384765625
4,-8.96875,-1.716796875,3.361328125,0.140625,0.07135009765625,-0.04473876953125
4,-9.015625,-1.70703125,3.326171875,0.12249755859375,0.041534423828125,-0.09906005859375
4,-9.0,-1.6025390625,3.212890625,0.09161376953125,0.0170440673828125,-0.114013671875
4,-9.1484375,-1.67578125,3.015625,0.150146484375,0.04901123046875,-0.0660400390625
4,-9.0625,-1.7109375,2.921875,0.219482421875,0.09375,-0.0543212890625
4,-9.203125,-1.8671875,2.83984375,0.2301025390625,0.1160888671875,-0.022369384765625
4,-8.96875,-1.80859375,2.732421875,0.06072998046875,0.0543212890625,-0.041534423828125
4,-9.0234375,-1.88671875,2.740234375,-0.012786865234375,0.01491546630859375,0.038360595703125
4,-9.40625,-2.107421875,2.751953125,-0.114013671875,-0.036224365234375,0.02130126953125
4,-9.3828125,-1.966796875,2.85546875,-0.11932373046875,-0.0159759521484375,-0.0287628173828125
4,-9.1484375,-1.880859375,3.130859375,-0.0308990478515625,0.0,-0.03515625
4,-9.125,-1.6787109375,3.2265625,-0.08416748046875,-0.073486328125,-0.04046630859375
4,-9.0,-1.6220703125,3.2265625,-0.0053253173828125,-0.07135009765625,-0.0234375
4,-8.96875,-1.5830078125,3.11328125,-0.036224365234375,-0.05859375,0.03729248046875
4,-9.109375,-1.60546875,3.150390625,-0.0543212890625,-0.022369384765625,0.05218505859375
4,-9.1328125,-1.5390625,3.267578125,-0.0628662109375,0.0,0.1011962890625
4,-8.9296875,-1.5703125,3.39453125,-0.05218505859375,-0.0010652542114257812,0.10546875
4,-9.046875,-1.580078125,3.423828125,-0.0745849609375,-0.04901123046875,0.07989501953125
4,-9.046875,-1.4365234375,3.32421875,-0.08203125,-0.07562255859375,0.067138671875
4,-8.890625,-1.4267578125,3.30859375,-0.06072998046875,-0.0692138671875,0.07562255859375
4,-8.859375,-1.4990234375,3.130859375,-0.0287628173828125,-0.01491546630859375,0.0894775390625
4,-9.0234375,-1.419921875,3.236328125,-0.0777587890625,0.010650634765625,0.06817626953125
4,-8.9765625,-1.392578125,3.4296875,-0.12249755859375,0.012786865234375,0.0543212890625
4,-8.9609375,-1.3369140625,3.626953125,-0.09906005859375,-0.0170440673828125,0.03729248046875
4,-8.9921875,-1.3232421875,3.576171875,-0.132080078125,-0.0863037109375,0.02130126953125
4,-8.9453125,-1.353515625,3.3828125,-0.1480712890625,-0.08416748046875,0.01491546630859375
4,-8.9921875,-1.369140625,3.267578125,-0.1309814453125,-0.0426025390625,0.0
4,-8.8984375,-1.373046875,3.44140625,-0.06500244140625,0.0170440673828125,0.01491546630859375
4,-8.984375,-1.4013671875,3.6015625,0.02557373046875,0.038360595703125,0.004261016845703125
4,-8.953125,-1.3154296875,3.626953125,-0.0010652542114257812,-0.012786865234375,0.0170440673828125
4,-8.9609375,-1.4013671875,3.513671875,-0.059661865234375,-0.0628662109375,0.0159759521484375
4,-8.9921875,-1.6181640625,3.375,-0.02130126953125,-0.012786865234375,0.0191802978515625
4,-8.828125,-1.5908203125,3.4375,0.07672119140625,0.03515625,-0.046875
4,-8.96875,-1.5048828125,3.525390625,0.0170440673828125,0.007457733154296875,-0.0276947021484375
4,-9.09375,-1.474609375,3.478515625,-0.0276947021484375,-0.0181121826171875,-0.04046630859375
4,-8.9609375,-1.40625,3.556640625,0.03302001953125,0.00959014892578125,0.0053253173828125
4,-9.0234375,-1.4130859375,3.599609375,0.024505615234375,-0.0010652542114257812,0.0159759521484375
4,-8.890625,-1.4208984375,3.55078125,0.0010652542114257812,-0.0287628173828125,0.041534423828125
4,-8.984375,-1.5693359375,3.42578125,-0.02130126953125,-0.0276947021484375,0.0234375
4,-8.90625,-1.5498046875,3.5390625,0.02557373046875,0.0,-0.0170440673828125
4,-8.9140625,-1.3837890625,3.587890625,0.041534423828125,0.0010652542114257812,-0.038360595703125
4,-8.9921875,-1.2236328125,3.458984375,-0.07562255859375,-0.047943115234375,-0.0287628173828125
4,-8.9375,-1.24609375,3.41015625,0.010650634765625,0.0298309326171875,0.00959014892578125
4,-8.6796875,-1.201171875,3.48828125,0.0063934326171875,0.04473876953125,0.06500244140625
4,-9.140625,-1.6015625,3.54296875,-0.0159759521484375,0.0511474609375,0.06817626953125
4,-8.8203125,-1.5947265625,3.619140625,-0.0308990478515625,0.0159759521484375,-0.020233154296875
4,-9.0078125,-1.66015625,3.580078125,0.06072998046875,0.0159759521484375,-0.05859375
4,-8.921875,-1.51953125,3.5703125,0.10760498046875,0.00319671630859375,-0.0863037109375
4,-9.015625,-1.484375,3.486328125,0.08416748046875,-0.0181121826171875,-0.09375
4,-8.984375,-1.3837890625,3.37890625,0.0926513671875,-0.0159759521484375,-0.08203125
4,-8.9609375,-1.4248046875,3.34765625,0.0809326171875,0.0266265869140625,-0.02557373046875
4,-8.9921875,-1.509765625,3.41796875,0.08843994140625,0.050079345703125,-0.0159759521484375
4,-8.9921875,-1.5009765625,3.416015625,0.036224365234375,0.0276947021484375,-0.034088134765625
4,-9.0078125,-1.3974609375,3.453125,0.007457733154296875,0.0,-0.0266265869140625
4,-9.03125,-1.4404296875,3.384765625,-0.00852203369140625,0.004261016845703125,0.0063934326171875
4,-9.0390625,-1.4130859375,3.412109375,-0.0053253173828125,0.01384735107421875,0.0276947021484375
4,-8.984375,-1.494140625,3.421875,-0.0308990478515625,-0.0010652542114257812,0.050079345703125
4,-9.0625,-1.5947265625,3.490234375,0.0063934326171875,0.0063934326171875,0.0298309326171875
4,-8.9765625,-1.4111328125,3.517578125,-0.0543212890625,-0.04473876953125,0.01171875
4,-8.9921875,-1.421875,3.361328125,-0.0308990478515625,-0.036224365234375,0.0159759521484375
4,-8.9609375,-1.4033203125,3.416015625,-0.043670654296875,-0.0159759521484375,0.0298309326171875
4,-8.9375,-1.5087890625,3.53515625,-0.024505615234375,-0.0053253173828125,0.02130126953125
4,-8.921875,-1.4609375,3.568359375,-0.05218505859375,-0.03515625,-0.0063934326171875
4,-8.984375,-1.423828125,3.494140625,-0.0660400390625,-0.041534423828125,-0.01491546630859375
4,-8.9609375,-1.3525390625,3.4921875,-0.067138671875,-0.0308990478515625,0.0053253173828125
4,-8.9609375,-1.345703125,3.44140625,-0.0703125,-0.0063934326171875,0.03515625
4,-8.9140625,-1.4423828125,3.560546875,-0.08843994140625,0.0021305084228515625,0.050079345703125
4,-8.9609375,-1.498046875,3.595703125,-0.06072998046875,0.01491546630859375,0.0543212890625
4,-8.875,-1.482421875,3.63671875,-0.085205078125,-0.007457733154296875,0.046875
4,-8.953125,-1.5166015625,3.599609375,-0.067138671875,0.0010652542114257812,0.043670654296875
4,-8.859375,-1.4521484375,3.5859375,-0.0745849609375,0.0063934326171875,0.0394287109375
4,-8.90625,-1.5107421875,3.53125,-0.04473876953125,0.012786865234375,0.03302001953125
4,-8.921875,-1.564453125,3.62109375,-0.03729248046875,0.0063934326171875,0.01491546630859375
4,-8.90625,-1.5087890625,3.654296875,-0.0191802978515625,-0.0159759521484375,-0.004261016845703125
4,-8.9375,-1.431640625,3.583984375,0.01384735107421875,-0.0308990478515625,-0.01384735107421875
4,-8.9453125,-1.408203125,3.46875,0.024505615234375,-0.02130126953125,0.0053253173828125
4,-8.9453125,-1.443359375,3.453125,0.04473876953125,0.022369384765625,0.004261016845703125
4,-8.90625,-1.3798828125,3.546875,0.0511474609375,0.036224365234375,-0.0021305084228515625
4,-8.96875,-1.4326171875,3.611328125,0.06500244140625,0.024505615234375,-0.0159759521484375
4,-8.9375,-1.3349609375,3.54296875,0.047943115234375,0.0010652542114257812,-0.0234375
4,-8.9375,-1.3642578125,3.42578125,0.02557373046875,-0.0021305084228515625,-0.038360595703125
4,-9.015625,-1.4013671875,3.384765625,0.0159759521484375,0.031951904296875,-0.053253173828125
4,-8.9609375,-1.3046875,3.4609375,0.0777587890625,0.053253173828125,-0.036224365234375
4,-9.0,-1.42578125,3.544921875,0.0543212890625,0.01491546630859375,-0.031951904296875
4,-8.984375,-1.4423828125,3.431640625,0.05218505859375,-0.00319671630859375,-0.036224365234375
4,-8.9765625,-1.517578125,3.421875,0.090576171875,0.0287628173828125,-0.0266265869140625
4,-8.8984375,-1.525390625,3.603515625,0.10546875,0.0159759521484375,-0.04046630859375
4,-8.8828125,-1.6015625,3.62109375,0.18212890625,0.020233154296875,-0.0660400390625
4,-8.9375,-1.6025390625,3.533203125,0.1800537109375,-0.007457733154296875,-0.09478759765625
4,-8.96875,-1.5390625,3.439453125,0.1778564453125,-0.00852203369140625,-0.1246337890625
4,-9.0390625,-1.3896484375,3.357421875,0.120361328125,-0.0181121826171875,-0.1129150390625
4,-8.9375,-1.3310546875,3.357421875,0.0745849609375,0.007457733154296875,-0.0628662109375
4,-9.0078125,-1.4423828125,3.373046875,0.04473876953125,0.03302001953125,-0.020233154296875
4,-8.9140625,-1.4541015625,3.44921875,0.0063934326171875,0.03302001953125,-0.0053253173828125
4,-8.9921875,-1.5576171875,3.482421875,-0.0394287109375,0.034088134765625,0.007457733154296875
4,-8.90625,-1.4873046875,3.515625,-0.06390380859375,0.0159759521484375,0.0266265869140625
4,-8.9765625,-1.5693359375,3.458984375,-0.05645751953125,0.031951904296875,0.03729248046875
4,-8.9609375,-1.615234375,3.529296875,-0.06817626953125,0.0181121826171875,0.038360595703125
4,-8.953125,-1.58984375,3.380859375,-0.059661865234375,0.0276947021484375,0.034088134765625
4,-9.0625,-1.5068359375,3.34765625,-0.102294921875,0.0159759521484375,0.03515625
4,-9.015625,-1.51171875,3.27734375,-0.0863037109375,0.0266265869140625,0.0426025390625
4,-9.0234375,-1.5146484375,3.26171875,-0.10546875,0.04046630859375,0.05859375
4,-9.0390625,-1.5625,3.294921875,-0.1129150390625,0.036224365234375,0.041534423828125
4,-9.375,-1.642578125,3.453125,-0.09478759765625,-0.01384735107421875,0.047943115234375
4,-8.8359375,-1.3125,3.50390625,-0.15771484375,-0.1160888671875,0.041534423828125
4,-8.9609375,-1.5986328125,3.2265625,-0.08203125,-0.102294921875,0.085205078125
4,-9.03125,-1.6337890625,3.162109375,-0.09375,-0.0703125,0.03729248046875
4,-8.953125,-1.5546875,3.15234375,-0.1566162109375,-0.038360595703125,-0.00319671630859375
4,-8.953125,-1.421875,3.35546875,-0.061798095703125,0.04046630859375,0.0266265869140625
4,-8.984375,-1.388671875,3.54296875,-0.07562255859375,-0.0010652542114257812,0.0426025390625
4,-9.0703125,-1.4853515625,3.4921875,-0.11822509765625,-0.0426025390625,0.05859375
4,-8.8828125,-1.4755859375,3.384765625,-0.096923828125,-0.0276947021484375,0.0809326171875
4,-8.9140625,-1.7158203125,3.341796875,-0.036224365234375,0.0170440673828125,0.06390380859375
4,-9.0703125,-1.705078125,3.484375,0.0010652542114257812,0.022369384765625,-0.0021305084228515625
4,-8.96875,-1.42578125,3.46875,-0.038360595703125,-0.020233154296875,-0.043670654296875
4,-9.046875,-1.3623046875,3.40625,-0.0191802978515625,-0.0053253173828125,0.00959014892578125
4,-8.921875,-1.4541015625,3.3828125,0.0426025390625,0.0234375,0.03515625
4,-9.03125,-1.6025390625,3.337890625,-0.0053253173828125,0.007457733154296875,0.0170440673828125
4,-8.9140625,-1.5654296875,3.345703125,-0.01171875,0.0063934326171875,-0.0181121826171875
4,-8.96875,-1.6181640625,3.3984375,0.03515625,0.0394287109375,-0.0234375
4,-8.984375,-1.615234375,3.466796875,0.0010652542114257812,-0.0053253173828125,-0.0543212890625
4,-9.125,-1.615234375,3.517578125,0.03515625,-0.01491546630859375,-0.08306884765625
4,-9.0078125,-1.501953125,3.533203125,0.0926513671875,-0.00959014892578125,-0.0426025390625
4,-9.015625,-1.5634765625,3.59375,0.1278076171875,-0.01171875,-0.04046630859375
4,-8.9375,-1.642578125,3.484375,0.13427734375,-0.01171875,-0.0276947021484375
4,-8.9296875,-1.6689453125,3.39453125,0.1011962890625,-0.00959014892578125,-0.046875
4,-8.859375,-1.6259765625,3.314453125,0.18115234375,0.053253173828125,-0.05859375
4,-9.0625,-1.5908203125,3.341796875,0.1544189453125,0.0894775390625,-0.047943115234375
4,-8.96875,-1.5126953125,3.41015625,0.1832275390625,0.09906005859375,-0.06817626953125
4,-9.0234375,-1.4423828125,3.400390625,0.202392578125,0.08843994140625,-0.04046630859375
4,-9.046875,-1.458984375,3.28515625,0.0980224609375,0.0266265869140625,-0.041534423828125
4,-9.0078125,-1.478515625,3.166015625,0.08734130859375,0.047943115234375,-0.036224365234375
4,-9.0546875,-1.458984375,3.15234375,0.08843994140625,0.0809326171875,-0.0053253173828125
4,-9.1328125,-1.5703125,3.2734375,0.078857421875,0.06500244140625,-0.00959014892578125
4,-9.015625,-1.623046875,3.294921875,0.01384735107421875,-0.0021305084228515625,-0.05218505859375
4,-9.0859375,-1.4951171875,3.12109375,-0.00319671630859375,-0.031951904296875,-0.07989501953125
4,-9.0859375,-1.3583984375,3.068359375,0.007457733154296875,-0.0063934326171875,-0.03302001953125
4,-9.0703125,-1.427734375,3.0625,-0.020233154296875,-0.004261016845703125,0.004261016845703125
4,-9.078125,-1.6220703125,3.056640625,-0.0021305084228515625,0.0181121826171875,0.0276947021484375
4,-9.125,-1.66015625,3.11328125,-0.0191802978515625,0.007457733154296875,0.00852203369140625
4,-9.015625,-1.556640625,3.091796875,-0.045806884765625,0.0,0.0
4,-9.15625,-1.49609375,3.078125,-0.05218505859375,0.0170440673828125,0.0063934326171875
4,-9.125,-1.4541015625,3.15234375,-0.0745849609375,0.0308990478515625,0.045806884765625
4,-9.0546875,-1.4931640625,3.271484375,-0.0745849609375,0.02130126953125,0.05859375
4,-9.1953125,-1.5615234375,3.2109375,-0.143798828125,-0.034088134765625,0.03729248046875
4,-9.0703125,-1.3681640625,3.109375,-0.13427734375,-0.0170440673828125,0.06500244140625
4,-9.1015625,-1.388671875,3.0,-0.2012939453125,-0.02557373046875,0.09161376953125
4,-9.0390625,-1.4404296875,3.01953125,-0.220458984375,-0.00852203369140625,0.096923828125
4,-9.1171875,-1.4619140625,3.025390625,-0.265380859375,-0.0159759521484375,0.0980224609375
4,-9.140625,-1.541015625,3.150390625,-0.2418212890625,-0.012786865234375,0.09588623046875
4,-9.140625,-1.5263671875,3.314453125,-0.2066650390625,-0.047943115234375,0.08416748046875
4,-9.0390625,-1.5361328125,3.267578125,-0.1534423828125,-0.0777587890625,0.07135009765625
4,-9.015625,-1.5625,3.33203125,-0.0894775390625,-0.1011962890625,0.04901123046875
4,-8.8828125,-1.6328125,3.208984375,-0.0692138671875,-0.10333251953125,0.00959014892578125
4,-9.0,-1.642578125,3.21484375,0.06390380859375,-0.004261016845703125,-0.0010652542114257812
4,-8.890625,-1.5693359375,3.388671875,0.08734130859375,0.0181121826171875,-0.03515625
4,-8.9140625,-1.5908203125,3.462890625,0.08306884765625,-0.0170440673828125,-0.053253173828125
4,-8.9921875,-1.69140625,3.29296875,0.1097412109375,-0.004261016845703125,-0.073486328125
4,-8.9375,-1.62109375,3.27734375,0.1480712890625,0.031951904296875,-0.08734130859375
4,-8.8828125,-1.5498046875,3.30859375,0.03729248046875,-0.0159759521484375,-0.09588623046875
4,-9.1640625,-1.5966796875,3.271484375,0.0170440673828125,-0.00319671630859375,-0.108642578125
4,-8.90625,-1.498046875,3.21875,0.0308990478515625,0.01491546630859375,-0.06817626953125
4,-9.1328125,-1.6943359375,3.220703125,0.0298309326171875,0.0234375,-0.06390380859375
4,-8.953125,-1.7265625,3.30078125,0.059661865234375,0.03515625,-0.0426025390625
4,-8.984375,-1.8017578125,3.34765625,0.0660400390625,0.02557373046875,-0.0511474609375
4,-8.953125,-1.9365234375,3.30078125,0.13525390625,0.036224365234375,-0.036224365234375
4,-8.9765625,-2.02734375,3.306640625,0.18212890625,0.04901123046875,-0.06500244140625
4,-9.015625,-1.93359375,3.21875,0.161865234375,0.024505615234375,-0.08843994140625
4,-9.0546875,-1.80078125,3.251953125,0.12249755859375,-0.0010652542114257812,-0.08843994140625
4,-9.0,-1.73828125,3.177734375,0.02557373046875,-0.043670654296875,-0.05859375
4,-9.0,-1.8125,3.0234375,0.1246337890625,0.0276947021484375,-0.02557373046875
4,-9.0625,-1.818359375,3.236328125,0.08203125,0.031951904296875,-0.0170440673828125
4,-9.046875,-1.7509765625,3.326171875,0.05218505859375,0.00852203369140625,-0.012786865234375
4,-9.03125,-1.775390625,3.326171875,0.059661865234375,0.0021305084228515625,0.022369384765625
4,-8.953125,-1.8056640625,3.2734375,0.1011962890625,0.022369384765625,0.0063934326171875
4,-9.078125,-1.7275390625,3.2890625,0.08843994140625,0.0234375,0.0159759521484375
4,-8.96875,-1.67578125,3.26953125,0.07672119140625,0.03729248046875,0.02130126953125
4,-9.078125,-1.67578125,3.298828125,0.06500244140625,0.034088134765625,0.0159759521484375
4,-8.9921875,-1.630859375,3.345703125,0.01384735107421875,-0.00852203369140625,-0.01171875
4,-8.9296875,-1.6533203125,3.173828125,0.034088134765625,0.00852203369140625,-0.0159759521484375
4,-9.140625,-1.5205078125,3.271484375,0.024505615234375,0.00959014892578125,-0.036224365234375
4,-9.015625,-1.4580078125,3.337890625,0.01171875,-0.01171875,-0.0063934326171875
4,-9.09375,-1.4609375,3.34765625,-0.046875,-0.01491546630859375,0.06390380859375
4,-9.046875,-1.52734375,3.3359375,-0.034088134765625,-0.007457733154296875,0.07989501953125
4,-9.0,-1.583984375,3.326171875,-0.06817626953125,-0.022369384765625,0.0745849609375
4,-8.9453125,-1.5087890625,3.3671875,-0.08203125,-0.031951904296875,0.0511474609375
4,-9.0234375,-1.5205078125,3.345703125,-0.10546875,-0.038360595703125,0.0511474609375
4,-8.9140625,-1.4091796875,3.4140625,-0.06390380859375,-0.0266265869140625,0.050079345703125
4,-8.9921875,-1.521484375,3.40625,-0.0543212890625,-0.024505615234375,0.05218505859375
4,-8.8984375,-1.4716796875,3.46484375,-0.045806884765625,-0.0298309326171875,0.043670654296875
4,-8.9453125,-1.5048828125,3.474609375,-0.031951904296875,-0.02557373046875,0.0234375
4,-8.9609375,-1.4716796875,3.529296875,-0.0308990478515625,-0.036224365234375,0.01384735107421875
4,-8.8984375,-1.482421875,3.525390625,0.02130126953125,-0.0053253173828125,0.00319671630859375
4,-8.953125,-1.408203125,3.552734375,0.004261016845703125,-0.0159759521484375,-0.0053253173828125
4,-8.9453125,-1.4130859375,3.5859375,0.04473876953125,-0.0021305084228515625,-0.01491546630859375
4,-8.890625,-1.41015625,3.5234375,0.06500244140625,0.0063934326171875,-0.01384735107421875
4,-8.9609375,-1.369140625,3.533203125,0.05645751953125,0.007457733154296875,-0.0298309326171875
4,-8.984375,-1.3408203125,3.458984375,0.06500244140625,0.01491546630859375,-0.0287628173828125
4,-8.9375,-1.2919921875,3.478515625,0.055389404296875,0.01171875,-0.022369384765625
4,-8.953125,-1.4169921875,3.4609375,0.057525634765625,0.0170440673828125,-0.022369384765625
4,-8.9375,-1.3837890625,3.517578125,0.06072998046875,0.0159759521484375,-0.02557373046875
4,-8.9765625,-1.4677734375,3.556640625,0.0809326171875,0.0191802978515625,-0.0394287109375
4,-8.96875,-1.4482421875,3.595703125,0.07672119140625,-0.0021305084228515625,-0.06500244140625
4,-8.984375,-1.3583984375,3.486328125,0.0777587890625,0.0,-0.050079345703125
4,-8.984375,-1.369140625,3.5,0.06817626953125,0.00852203369140625,-0.024505615234375
4,-8.9453125,-1.3798828125,3.484375,0.073486328125,0.0191802978515625,-0.0181121826171875
4,-9.0234375,-1.3681640625,3.484375,0.05859375,0.02130126953125,-0.0021305084228515625
4,-8.953125,-1.3583984375,3.46875,0.061798095703125,0.0287628173828125,0.0010652542114257812
4,-8.96875,-1.376953125,3.455078125,0.05859375,0.03515625,-0.004261016845703125
4,-8.9296875,-1.3720703125,3.484375,0.06390380859375,0.024505615234375,-0.022369384765625
4,-8.890625,-1.392578125,3.359375,0.061798095703125,0.0181121826171875,-0.036224365234375
4,-9.03125,-1.298828125,3.333984375,0.022369384765625,0.0063934326171875,-0.034088134765625
4,-9.03125,-1.3203125,3.30859375,0.0010652542114257812,0.0308990478515625,-0.0053253173828125
4,-8.953125,-1.3212890625,3.29296875,-0.0511474609375,0.03302001953125,0.0010652542114257812
4,-9.0859375,-1.3779296875,3.251953125,-0.07989501953125,0.043670654296875,0.01384735107421875
4,-8.9296875,-1.29296875,3.306640625,-0.09906005859375,0.041534423828125,0.0287628173828125
4,-9.1171875,-1.4619140625,3.263671875,-0.1534423828125,0.01384735107421875,0.02557373046875
4,-9.0859375,-1.4345703125,3.2421875,-0.1448974609375,0.020233154296875,0.04473876953125
4,-9.1484375,-1.447265625,3.271484375,-0.12359619140625,0.0276947021484375,0.05218505859375
4,-9.1015625,-1.4375,3.109375,-0.172607421875,0.01171875,0.059661865234375
4,-9.125,-1.431640625,3.0625,-0.125732421875,0.059661865234375,0.0692138671875
4,-9.1171875,-1.5068359375,3.09765625,-0.108642578125,0.06500244140625,0.05218505859375
4,-9.171875,-1.4482421875,3.08203125,-0.12890625,0.0287628173828125,0.036224365234375
4,-9.1796875,-1.220703125,3.103515625,-0.09478759765625,0.01384735107421875,0.047943115234375
4,-9.140625,-1.1826171875,3.146484375,-0.11187744140625,-0.0170440673828125,0.0692138671875
4,-8.9609375,-1.4296875,3.203125,-0.010650634765625,0.0,0.10333251953125
4,-9.046875,-1.587890625,3.296875,-0.00959014892578125,-0.053253173828125,0.00852203369140625
4,-8.8828125,-1.4677734375,3.078125,0.041534423828125,-0.0628662109375,-0.0170440673828125
4,-9.4609375,-1.6416015625,3.115234375,0.057525634765625,-0.046875,-0.09588623046875
4,-9.03125,-1.302734375,3.318359375,0.09906005859375,-0.07672119140625,-0.0980224609375
4,-9.1484375,-1.33203125,2.94140625,0.00852203369140625,-0.08734130859375,-0.0660400390625
4,-8.984375,-1.416015625,3.033203125,0.06817626953125,0.00319671630859375,-0.034088134765625
4,-8.9765625,-1.5009765625,3.171875,0.085205078125,0.038360595703125,-0.053253173828125
4,-9.109375,-1.5546875,3.388671875,0.0863037109375,0.0181121826171875,-0.061798095703125
4,-9.109375,-1.4990234375,3.408203125,0.050079345703125,-0.04046630859375,-0.0809326171875
4,-9.0234375,-1.4169921875,3.22265625,0.053253173828125,-0.04901123046875,-0.05645751953125
4,-9.078125,-1.404296875,3.109375,0.05645751953125,-0.00959014892578125,-0.02130126953125
4,-9.1015625,-1.435546875,3.205078125,0.059661865234375,0.0394287109375,0.0191802978515625
4,-8.9921875,-1.484375,3.33984375,0.0628662109375,0.057525634765625,0.038360595703125
4,-9.09375,-1.556640625,3.38671875,0.03515625,0.024505615234375,0.02557373046875
4,-8.9765625,-1.51953125,3.328125,0.04046630859375,0.01491546630859375,0.0063934326171875
4,-9.0234375,-1.4951171875,3.2734375,0.050079345703125,0.02130126953125,-0.01384735107421875
4,-9.0,-1.474609375,3.330078125,0.1278076171875,0.055389404296875,-0.01171875
4,-8.9921875,-1.5966796875,3.21875,0.1566162109375,0.043670654296875,-0.0394287109375
4,-9.1640625,-1.5458984375,3.125,0.1395263671875,0.03515625,-0.07672119140625
4,-9.1484375,-1.388671875,3.11328125,0.09478759765625,0.031951904296875,-0.0809326171875
4,-9.1328125,-1.267578125,3.162109375,0.057525634765625,0.01491546630859375,-0.024505615234375
4,-9.1328125,-1.314453125,3.21875,0.010650634765625,-0.00852203369140625,0.0181121826171875
4,-9.0703125,-1.4609375,3.205078125,-0.06500244140625,-0.0308990478515625,0.041534423828125
4,-8.9453125,-1.5751953125,3.1796875,-0.0063934326171875,-0.00852203369140625,-0.00852203369140625
4,-9.0625,-1.423828125,3.3046875,-0.0628662109375,-0.0394287109375,0.012786865234375
4,-9.09375,-1.4794921875,3.298828125,-0.1171875,-0.08306884765625,-0.01384735107421875
4,-9.0078125,-1.494140625,3.302734375,-0.090576171875,-0.0660400390625,0.022369384765625
4,-9.0703125,-1.587890625,3.421875,-0.043670654296875,-0.05645751953125,0.0021305084228515625
4,-9.1328125,-1.61328125,3.427734375,-0.041534423828125,-0.06072998046875,-0.0234375
4,-9.0078125,-1.4052734375,3.298828125,-0.11505126953125,-0.09161376953125,-0.038360595703125
4,-8.9453125,-1.2919921875,3.275390625,-0.050079345703125,-0.0287628173828125,0.0191802978515625
4,-8.9609375,-1.3984375,3.376953125,-0.0298309326171875,0.0010652542114257812,0.06072998046875
4,-8.921875,-1.5302734375,3.47265625,-0.022369384765625,0.00852203369140625,0.0692138671875
4,-8.953125,-1.66015625,3.48046875,-0.02130126953125,0.00852203369140625,0.01491546630859375
4,-8.9296875,-1.666015625,3.564453125,-0.050079345703125,0.0010652542114257812,0.007457733154296875
4,-8.9453125,-1.6552734375,3.693359375,-0.00852203369140625,0.01384735107421875,-0.03302001953125
4,-8.953125,-1.5224609375,3.638671875,0.0021305084228515625,-0.012786865234375,-0.0287628173828125
4,-9.0078125,-1.427734375,3.439453125,-0.0276947021484375,-0.043670654296875,-0.0287628173828125
4,-8.8984375,-1.39453125,3.203125,-0.0276947021484375,0.010650634765625,0.036224365234375
4,-9.03125,-1.466796875,3.205078125,-0.03302001953125,0.0660400390625,0.0745849609375
4,-9.015625,-1.57421875,3.41015625,-0.0543212890625,0.08843994140625,0.0777587890625
4,-8.9765625,-1.5986328125,3.568359375,-0.06390380859375,0.05218505859375,0.055389404296875
4,-8.984375,-1.626953125,3.583984375,-0.05859375,0.0,0.0181121826171875
4,-9.0546875,-1.5419921875,3.421875,-0.06500244140625,-0.0511474609375,-0.00852203369140625
4,-8.9453125,-1.404296875,3.2421875,-0.07989501953125,-0.061798095703125,-0.012786865234375
4,-8.9765625,-1.4501953125,3.109375,-0.061798095703125,-0.00959014892578125,0.0170440673828125
4,-9.0234375,-1.4326171875,3.2421875,-0.07672119140625,0.02130126953125,0.04046630859375
4,-9.03125,-1.4990234375,3.427734375,-0.06500244140625,0.03302001953125,0.050079345703125
4,-8.9765625,-1.5888671875,3.51171875,-0.022369384765625,0.0266265869140625,0.04901123046875
4,-8.9609375,-1.6416015625,3.5390625,0.0010652542114257812,0.0021305084228515625,0.01171875
4,-8.9765625,-1.5126953125,3.421875,-0.00959014892578125,-0.02130126953125,-0.0053253173828125
4,-8.9609375,-1.537109375,3.35546875,0.050079345703125,0.012786865234375,-0.0010652542114257812
4,-9.015625,-1.5068359375,3.4375,0.045806884765625,-0.0010652542114257812,-0.0308990478515625
4,-8.9765625,-1.5068359375,3.419921875,0.04901123046875,-0.0159759521484375,-0.0426025390625
4,-8.984375,-1.5,3.3984375,0.0543212890625,-0.022369384765625,-0.031951904296875
4,-8.9453125,-1.5419921875,3.419921875,0.0703125,-0.007457733154296875,-0.04046630859375
4,-8.9375,-1.5107421875,3.49609375,0.096923828125,-0.022369384765625,-0.05218505859375
4,-9.046875,-1.53515625,3.458984375,0.08734130859375,-0.022369384765625,-0.04473876953125
4,-8.9765625,-1.39453125,3.390625,0.0980224609375,-0.0021305084228515625,-0.020233154296875
4,-8.875,-1.4208984375,3.404296875,0.11822509765625,0.0191802978515625,0.0021305084228515625
4,-9.09375,-1.4794921875,3.501953125,0.010650634765625,-0.0234375,-0.0063934326171875
4,-8.8125,-1.5595703125,3.525390625,0.10015869140625,0.0308990478515625,-0.020233154296875
4,-8.9609375,-1.3212890625,3.5390625,0.0660400390625,-0.01491546630859375,-0.0426025390625
4,-8.9921875,-1.3583984375,3.46484375,0.0170440673828125,-0.0266265869140625,-0.012786865234375
4,-8.9375,-1.3271484375,3.390625,0.0063934326171875,-0.0053253173828125,0.01171875
4,-8.9296875,-1.453125,3.4375,-0.0010652542114257812,0.0170440673828125,0.01384735107421875
4,-8.9453125,-1.48828125,3.53125,0.010650634765625,0.02130126953125,0.0063934326171875
4,-8.953125,-1.4453125,3.55859375,0.0021305084228515625,0.0,-0.01491546630859375
4,-8.9609375,-1.419921875,3.49609375,0.012786865234375,-0.0021305084228515625,-0.0287628173828125
4,-9.0078125,-1.4111328125,3.45703125,-0.0063934326171875,0.0010652542114257812,-0.01171875
4,-8.984375,-1.419921875,3.521484375,0.00852203369140625,0.0234375,-0.004261016845703125
4,-8.9296875,-1.4326171875,3.5078125,-0.004261016845703125,0.01384735107421875,0.0053253173828125
4,-8.9765625,-1.4541015625,3.533203125,0.0053253173828125,0.0170440673828125,-0.0063934326171875
4,-8.953125,-1.44140625,3.580078125,0.00852203369140625,0.00852203369140625,-0.0053253173828125
4,-8.9140625,-1.408203125,3.462890625,0.010650634765625,0.0010652542114257812,0.0010652542114257812
4,-8.9609375,-1.45703125,3.455078125,-0.020233154296875,-0.0010652542114257812,0.0
4,-8.9296875,-1.4912109375,3.51171875,-0.007457733154296875,0.00959014892578125,-0.0021305084228515625
4,-8.921875,-1.484375,3.51953125,-0.00852203369140625,0.0010652542114257812,-0.00319671630859375
4,-8.9453125,-1.5166015625,3.52734375,-0.007457733154296875,-0.007457733154296875,-0.0170440673828125
4,-8.921875,-1.576171875,3.490234375,0.02557373046875,0.00852203369140625,-0.03302001953125
4,-8.984375,-1.482421875,3.630859375,0.0426025390625,0.010650634765625,-0.034088134765625
4,-9.0,-1.4326171875,3.46875,-0.004261016845703125,-0.01171875,-0.0276947021484375
4,-8.9765625,-1.4169921875,3.36328125,-0.0021305084228515625,0.0,-0.0170440673828125
4,-8.9296875,-1.447265625,3.380859375,-0.0170440673828125,0.024505615234375,0.007457733154296875
4,-8.96875,-1.541015625,3.48828125,-0.0010652542114257812,0.03302001953125,0.0063934326171875
4,-8.9921875,-1.5693359375,3.533203125,-0.045806884765625,-0.00959014892578125,-0.007457733154296875
4,-8.984375,-1.5693359375,3.458984375,-0.03302001953125,-0.0063934326171875,-0.0191802978515625
4,-9.0078125,-1.494140625,3.505859375,-0.055389404296875,0.0021305084228515625,-0.0053253173828125
4,-8.9609375,-1.4736328125,3.521484375,-0.038360595703125,0.0,0.045806884765625
4,-8.9765625,-1.6494140625,3.49609375,-0.055389404296875,-0.024505615234375,0.03302001953125
4,-8.90625,-1.6484375,3.396484375,-0.10546875,-0.043670654296875,0.0010652542114257812
4,-8.9453125,-1.6015625,3.390625,-0.090576171875,-0.0234375,0.0
4,-8.984375,-1.525390625,3.482421875,-0.0777587890625,-0.00852203369140625,0.0287628173828125
4,-8.953125,-1.5576171875,3.55859375,-0.0809326171875,-0.0181121826171875,0.036224365234375
4,-8.9375,-1.611328125,3.48828125,-0.07135009765625,-0.0276947021484375,0.03515625
4,-8.9296875,-1.62109375,3.447265625,-0.09161376953125,-0.0308990478515625,0.036224365234375
4,-8.9140625,-1.533203125,3.41015625,-0.0980224609375,-0.0159759521484375,0.0298309326171875
4,-8.9609375,-1.5478515625,3.51171875,-0.055389404296875,0.00852203369140625,0.061798095703125
4,-8.9453125,-1.572265625,3.576171875,-0.0863037109375,-0.0170440673828125,0.055389404296875
4,-8.9296875,-1.5517578125,3.50390625,-0.09478759765625,-0.020233154296875,0.031951904296875
4,-8.8671875,-1.501953125,3.431640625,-0.090576171875,0.00319671630859375,0.03515625
4,-8.9609375,-1.5380859375,3.46875,-0.08734130859375,0.00852203369140625,0.04046630859375
4,-8.921875,-1.60546875,3.537109375,-0.07672119140625,0.00959014892578125,0.010650634765625
4,-8.953125,-1.662109375,3.515625,-0.0394287109375,0.0063934326171875,0.0
4,-8.921875,-1.595703125,3.51953125,0.007457733154296875,0.01491546630859375,-0.0021305084228515625
4,-8.9453125,-1.625,3.470703125,0.03515625,0.0234375,-0.0063934326171875
4,-8.828125,-1.69140625,3.40234375,0.09478759765625,0.0287628173828125,-0.0266265869140625
4,-9.046875,-1.650390625,3.447265625,0.0628662109375,0.00959014892578125,-0.059661865234375
4,-8.9296875,-1.5615234375,3.501953125,0.09906005859375,0.0191802978515625,-0.04901123046875
4,-8.9765625,-1.6171875,3.5234375,0.1129150390625,0.007457733154296875,-0.04046630859375
4,-8.953125,-1.69921875,3.462890625,0.10650634765625,0.004261016845703125,-0.04473876953125
4,-8.9375,-1.712890625,3.47265625,0.1309814453125,0.01171875,-0.05645751953125
4,-8.9375,-1.626953125,3.419921875,0.11932373046875,0.0063934326171875,-0.0394287109375
4,-8.921875,-1.6923828125,3.275390625,0.1097412109375,0.0234375,-0.046875
4,-8.9453125,-1.673828125,3.330078125,0.07989501953125,0.04046630859375,-0.047943115234375
4,-8.9453125,-1.6640625,3.455078125,0.085205078125,0.047943115234375,-0.05218505859375
4,-8.9921875,-1.689453125,3.576171875,0.0926513671875,0.03302001953125,-0.05645751953125
4,-8.921875,-1.6787109375,3.439453125,0.1097412109375,0.0276947021484375,-0.050079345703125
4,-9.03125,-1.6650390625,3.32421875,0.08306884765625,0.02130126953125,-0.03515625
4,-8.96875,-1.6845703125,3.310546875,0.09588623046875,0.045806884765625,-0.024505615234375
4,-8.9765625,-1.70703125,3.365234375,0.06072998046875,0.0191802978515625,-0.038360595703125
4,-8.984375,-1.7119140625,3.453125,0.0745849609375,0.007457733154296875,-0.04473876953125
4,-9.0234375,-1.630859375,3.341796875,0.036224365234375,-0.020233154296875,-0.043670654296875
4,-8.9453125,-1.583984375,3.310546875,0.0660400390625,-0.012786865234375,-0.0287628173828125
4,-9.0546875,-1.6630859375,3.32421875,0.0191802978515625,-0.0181121826171875,-0.0170440673828125
4,-8.9140625,-1.625,3.4140625,0.022369384765625,-0.01384735107421875,0.0053253173828125
4,-8.9765625,-1.6865234375,3.3984375,0.01491546630859375,-0.00959014892578125,0.007457733154296875
4,-8.953125,-1.6923828125,3.412109375,0.0,-0.00852203369140625,0.00959014892578125
4,-8.9765625,-1.7080078125,3.46484375,0.0063934326171875,0.0010652542114257812,0.007457733154296875
4,-8.9765625,-1.646484375,3.548828125,0.0,0.0,0.01171875
4,-8.9296875,-1.599609375,3.611328125,0.02130126953125,-0.0063934326171875,0.0181121826171875
4,-8.921875,-1.607421875,3.494140625,-0.0276947021484375,-0.041534423828125,0.0234375
4,-8.9140625,-1.638671875,3.388671875,-0.0170440673828125,-0.0170440673828125,0.0159759521484375
4,-8.8828125,-1.591796875,3.400390625,-0.02130126953125,0.012786865234375,0.012786865234375
4,-8.9140625,-1.537109375,3.517578125,-0.0276947021484375,0.0010652542114257812,0.010650634765625
4,-8.9140625,-1.609375,3.509765625,-0.0266265869140625,-0.00319671630859375,0.0170440673828125
4,-8.8671875,-1.6025390625,3.46875,-0.04046630859375,-0.007457733154296875,0.0063934326171875
4,-8.9453125,-1.65234375,3.42578125,-0.04901123046875,-0.00319671630859375,0.0010652542114257812
4,-8.9609375,-1.6767578125,3.484375,-0.050079345703125,0.0,-0.00852203369140625
4,-8.9765625,-1.6025390625,3.53125,-0.03515625,0.010650634765625,-0.0010652542114257812
4,-9.0078125,-1.5498046875,3.505859375,-0.078857421875,-0.01384735107421875,0.0298309326171875
4,-8.96875,-1.587890625,3.49609375,-0.061798095703125,0.0,0.038360595703125
4,-8.953125,-1.63671875,3.447265625,-0.0692138671875,-0.0021305084228515625,0.0511474609375
4,-8.921875,-1.6376953125,3.44140625,-0.06817626953125,0.0021305084228515625,0.047943115234375
4,-9.0234375,-1.5966796875,3.51171875,-0.08306884765625,-0.00959014892578125,0.04473876953125
4,-8.9453125,-1.5302734375,3.44921875,-0.07989501953125,0.0010652542114257812,0.05859375
4,-8.9765625,-1.5615234375,3.42578125,-0.0863037109375,0.0,0.05218505859375
4,-8.96875,-1.552734375,3.400390625,-0.1171875,-0.007457733154296875,0.04473876953125
4,-9.0078125,-1.54296875,3.408203125,-0.1268310546875,-0.010650634765625,0.036224365234375
4,-9.0,-1.46484375,3.44921875,-0.137451171875,-0.01384735107421875,0.04046630859375
4,-8.9453125,-1.408203125,3.421875,-0.1160888671875,-0.024505615234375,0.04901123046875
4,-8.96875,-1.5595703125,3.400390625,-0.1043701171875,-0.0181121826171875,0.047943115234375
4,-9.078125,-1.60546875,3.59765625,-0.05645751953125,-0.0287628173828125,0.045806884765625
4,-8.8984375,-1.40625,3.798828125,-0.05218505859375,-0.13427734375,0.022369384765625
4,-8.921875,-1.423828125,3.41015625,-0.07135009765625,-0.11822509765625,0.03515625
4,-8.8515625,-1.3076171875,3.3515625,-0.0926513671875,-0.022369384765625,0.0426025390625
4,-8.828125,-1.314453125,3.546875,-0.034088134765625,0.07672119140625,0.085205078125
4,-8.9453125,-1.474609375,3.75390625,-0.047943115234375,0.05859375,0.053253173828125
4,-8.890625,-1.564453125,3.66015625,-0.04046630859375,0.03515625,0.0191802978515625
4,-8.9140625,-1.52734375,3.580078125,0.0010652542114257812,0.0426025390625,-0.00852203369140625
4,-8.9921875,-1.4755859375,3.529296875,0.046875,0.046875,-0.0308990478515625
4,-8.9296875,-1.4423828125,3.47265625,0.059661865234375,0.03515625,-0.034088134765625
4,-8.984375,-1.5595703125,3.419921875,0.08306884765625,0.043670654296875,-0.03515625
4,-8.9765625,-1.54296875,3.40625,0.11187744140625,0.05218505859375,-0.05645751953125
4,-9.0546875,-1.5205078125,3.400390625,0.1309814453125,0.046875,-0.0543212890625
4,-8.9921875,-1.515625,3.400390625,0.1309814453125,0.031951904296875,-0.061798095703125
4,-9.0,-1.4931640625,3.263671875,0.137451171875,0.0276947021484375,-0.06390380859375
4,-9.0234375,-1.50390625,3.23046875,0.1427001953125,0.02557373046875,-0.07244873046875
4,-9.015625,-1.5576171875,3.181640625,0.1480712890625,0.0394287109375,-0.0703125
5,-9.015625,-1.5263671875,3.2421875,0.12890625,0.0234375,-0.073486328125
5,-9.046875,-1.564453125,3.2890625,0.1268310546875,0.0181121826171875,-0.078857421875
5,-9.0390625,-1.54296875,3.296875,0.137451171875,0.01171875,-0.07135009765625
5,-9.0859375,-1.5849609375,3.31640625,0.149169921875,0.00959014892578125,-0.05859375
5,-9.0078125,-1.61328125,3.3046875,0.15234375,0.0,-0.061798095703125
5,1.9873046875,4.17578125,9.84375,0.378173828125,0.0,0.043670654296875
5,0.86083984375,3.111328125,8.7109375,0.138427734375,-0.0809326171875,0.120361328125
5,1.06640625,3.3984375,9.6796875,0.26953125,-0.07135009765625,0.1640625
5,1.326171875,3.849609375,9.2109375,-0.06500244140625,0.0308990478515625,-0.0308990478515625
5,1.1884765625,3.876953125,9.15625,-0.1800537109375,-0.00959014892578125,-0.045806884765625
5,1.1328125,3.34765625,9.1953125,-0.0809326171875,-0.0287628173828125,-0.06390380859375
5,1.2646484375,3.85546875,9.734375,0.9365234375,0.19921875,0.143798828125
5,0.496826171875,4.54296875,9.671875,0.057525634765625,-0.39404296875,0.17041015625
5,2.109375,4.390625,8.28125,0.22802734375,0.07562255859375,0.301513671875
5,2.16015625,3.958984375,8.1328125,0.24072265625,0.442138671875,0.2705078125
5,1.01953125,3.4296875,9.0078125,0.03302001953125,0.414306640625,0.3037109375
5,-0.90380859375,2.84375,9.296875,-1.197265625,0.0511474609375,0.328125
5,-0.1531982421875,2.92578125,13.0390625,-0.2418212890625,-0.283447265625,-0.046875
5,1.578125,2.939453125,9.015625,-0.1832275390625,-0.0543212890625,0.0276947021484375
5,1.1181640625,2.642578125,9.265625,-0.045806884765625,-0.01491546630859375,-0.0628662109375
5,1.4794921875,3.234375,9.25,-0.0298309326171875,-0.00852203369140625,-0.073486328125
5,1.51171875,3.1640625,9.2734375,-0.0745849609375,0.07244873046875,-0.022369384765625
5,1.4169921875,2.763671875,9.359375,-0.059661865234375,0.053253173828125,-0.01384735107421875
5,1.416015625,2.791015625,9.3515625,-0.06500244140625,0.057525634765625,0.0159759521484375
5,1.3046875,2.80078125,9.390625,-0.2066650390625,0.020233154296875,0.11505126953125
5,2.046875,2.4453125,9.5859375,0.71142578125,0.1363525390625,-0.354736328125
5,1.134765625,3.177734375,10.140625,-0.102294921875,-0.150146484375,-0.18212890625
5,1.572265625,1.966796875,8.4765625,0.1715087890625,0.0063934326171875,-0.196044921875
5,0.9697265625,3.86328125,8.6875,-0.045806884765625,0.09375,0.1800537109375
5,-0.322021484375,3.125,7.89453125,-0.65283203125,0.15869140625,0.33349609375
5,-0.1903076171875,4.68359375,13.0859375,-0.2247314453125,0.04046630859375,0.18115234375
5,1.001953125,3.16796875,8.8828125,-0.11505126953125,-0.0298309326171875,0.0809326171875
5,1.1748046875,2.71484375,9.46875,0.0010652542114257812,-0.034088134765625,-0.02130126953125
5,0.916015625,2.828125,9.25,-0.00959014892578125,0.007457733154296875,-0.045806884765625
5,0.8798828125,2.693359375,9.4140625,0.047943115234375,0.01171875,-0.03515625
5,0.93994140625,2.775390625,9.34375,-0.0234375,0.047943115234375,0.0234375
5,0.8740234375,2.6015625,9.28125,0.02557373046875,0.04046630859375,-0.0010652542114257812
5,0.89892578125,2.88671875,9.5078125,0.034088134765625,-0.012786865234375,0.0191802978515625
5,0.89892578125,2.810546875,9.34375,0.01491546630859375,0.004261016845703125,0.024505615234375
5,0.8701171875,2.697265625,9.4375,0.034088134765625,0.0745849609375,0.0287628173828125
5,0.9482421875,2.83203125,9.2890625,-0.0021305084228515625,0.022369384765625,0.0053253173828125
5,0.72802734375,2.908203125,9.421875,-0.00959014892578125,0.004261016845703125,-0.0181121826171875
5,0.78076171875,2.755859375,9.390625,0.004261016845703125,0.03302001953125,-0.024505615234375
5,0.8369140625,2.9921875,9.40625,-0.0159759521484375,0.0276947021484375,-0.0010652542114257812
5,0.7041015625,2.8203125,9.4609375,0.041534423828125,0.007457733154296875,0.020233154296875
5,0.826171875,2.72265625,9.3984375,0.01491546630859375,0.0426025390625,0.0159759521484375
5,0.6572265625,2.849609375,9.3828125,0.0426025390625,0.0181121826171875,-0.01491546630859375
5,0.70263671875,2.880859375,9.359375,-0.036224365234375,-0.0010652542114257812,-0.0191802978515625
5,0.64404296875,2.822265625,9.4375,0.045806884765625,0.01491546630859375,-0.020233154296875
5,0.5732421875,2.826171875,9.3828125,-0.03515625,0.046875,0.0266265869140625
5,0.6953125,2.775390625,9.390625,0.08416748046875,0.010650634765625,-0.0308990478515625
5,0.599609375,2.94921875,9.421875,0.00852203369140625,-0.0191802978515625,0.0021305084228515625
5,0.63818359375,2.84375,9.375,-0.07989501953125,-0.022369384765625,-0.0021305084228515625
5,0.7314453125,2.734375,9.3828125,-0.0053253173828125,-0.020233154296875,-0.02130126953125
5,0.7734375,2.744140625,9.390625,-0.02557373046875,0.01384735107421875,-0.0191802978515625
5,0.689453125,2.798828125,9.40625,0.012786865234375,0.0010652542114257812,0.01171875
5,0.65234375,2.765625,9.3984375,-0.004261016845703125,0.0170440673828125,0.00852203369140625
5,0.72314453125,2.68359375,9.453125,0.0053253173828125,0.00959014892578125,0.0063934326171875
5,0.70263671875,2.662109375,9.390625,-0.010650634765625,0.0063934326171875,0.0053253173828125
5,0.658203125,2.73828125,9.3828125,-0.0010652542114257812,-0.00319671630859375,-0.00959014892578125
5,0.7109375,2.740234375,9.4296875,-0.0053253173828125,-0.004261016845703125,0.0010652542114257812
5,0.70751953125,2.755859375,9.390625,-0.024505615234375,0.0191802978515625,0.00852203369140625
5,0.66455078125,2.7421875,9.3515625,-0.0894775390625,0.010650634765625,0.00959014892578125
5,0.55908203125,2.53515625,9.46875,-0.047943115234375,-0.0063934326171875,-0.0298309326171875
5,0.60205078125,2.490234375,9.46875,0.02557373046875,-0.061798095703125,-0.050079345703125
5,0.7744140625,2.513671875,9.4453125,0.004261016845703125,-0.04046630859375,-0.0063934326171875
5,0.7578125,2.525390625,9.40625,0.053253173828125,-0.007457733154296875,-0.004261016845703125
5,0.8330078125,2.591796875,9.4921875,0.012786865234375,0.010650634765625,-0.0063934326171875
5,0.763671875,2.732421875,9.4609375,-0.0394287109375,-0.04473876953125,0.020233154296875
5,0.705078125,2.6796875,9.4453125,-0.12249755859375,-0.05218505859375,-0.0170440673828125
5,0.7841796875,2.572265625,9.4375,-0.1395263671875,-0.120361328125,-0.04046630859375
5,0.8310546875,2.037109375,9.3671875,-0.0980224609375,0.0863037109375,0.03729248046875
5,1.251953125,2.728515625,9.53125,-0.34716796875,0.0287628173828125,0.120361328125
5,0.794921875,2.701171875,9.8984375,-0.343994140625,-0.3388671875,0.273681640625
5,0.83203125,2.17578125,9.53125,-0.306884765625,-0.08306884765625,0.572265625
5,1.6005859375,1.193359375,9.1484375,0.5849609375,0.40380859375,-0.271728515625
5,2.208984375,1.9560546875,10.53125,0.125732421875,0.1895751953125,-0.46240234375
5,2.640625,0.176025390625,8.703125,0.04046630859375,0.23974609375,0.090576171875
5,-0.9169921875,1.267578125,9.3125,-0.59765625,-0.120361328125,0.414306640625
5,-0.041900634765625,2.69921875,11.8515625,0.202392578125,-0.28759765625,-0.02130126953125
5,0.69189453125,2.880859375,7.73828125,-0.173583984375,0.1534423828125,-0.045806884765625
5,0.83935546875,1.6201171875,9.9921875,-0.1566162109375,-0.0010652542114257812,-0.067138671875
5,0.6513671875,2.24609375,9.5,-0.045806884765625,0.0692138671875,-0.01171875
5,0.70654296875,2.091796875,9.5390625,-0.0809326171875,-0.020233154296875,-0.07672119140625
5,0.85107421875,2.154296875,9.5703125,-0.1011962890625,-0.0511474609375,-0.0308990478515625
5,0.689453125,2.0703125,9.78125,-0.1395263671875,-0.00959014892578125,0.0159759521484375
5,0.7109375,1.9599609375,9.6875,-0.024505615234375,-0.0745849609375,-0.02557373046875
5,0.93603515625,1.5634765625,9.671875,0.1417236328125,0.05859375,-0.160888671875
5,0.91796875,2.1875,9.7578125,-0.07672119140625,-0.0021305084228515625,0.034088134765625
5,0.87890625,1.7490234375,9.6328125,0.067138671875,0.078857421875,0.0021305084228515625
5,0.6884765625,2.015625,9.71875,-0.0426025390625,-0.05218505859375,0.04473876953125
5,0.71923828125,1.6494140625,9.6171875,0.041534423828125,0.0010652542114257812,0.04473876953125
5,0.82470703125,1.80859375,9.671875,0.09478759765625,0.022369384765625,0.0010652542114257812
5,0.8369140625,1.8564453125,9.5234375,0.0543212890625,0.050079345703125,0.061798095703125
5,0.68359375,1.7216796875,9.6875,0.0266265869140625,0.0159759521484375,0.0287628173828125
5,0.7421875,2.1171875,9.578125,0.05218505859375,0.03302001953125,-0.0010652542114257812
5,0.7578125,2.060546875,9.6484375,-0.022369384765625,0.00319671630859375,0.00852203369140625
5,0.6787109375,1.828125,9.5859375,0.0053253173828125,0.01384735107421875,-0.0063934326171875
5,0.68115234375,1.9287109375,9.640625,-0.0426025390625,0.01171875,-0.0181121826171875
5,0.65966796875,1.9296875,9.71875,0.04473876953125,-0.0159759521484375,0.020233154296875
5,0.763671875,1.88671875,9.5625,0.073486328125,0.053253173828125,0.10760498046875
5,-0.112548828125,1.662109375,10.0078125,0.7841796875,0.0308990478515625,0.272705078125
5,-1.6806640625,3.12890625,10.7578125,0.22900390625,-0.272705078125,0.25146484375
5,-2.40234375,2.146484375,9.5078125,-0.1875,-0.46875,0.14599609375
5,-0.332763671875,1.36328125,8.9765625,-0.0703125,-0.15234375,-0.108642578125
5,2.232421875,1.21484375,8.2265625,-0.94384765625,0.5888671875,-0.03302001953125
5,3.984375,1.185546875,6.97265625,-1.2294921875,1.2802734375,-0.272705078125
5,3.974609375,1.3974609375,8.1171875,-0.85546875,0.93017578125,-0.2386474609375
5,1.4892578125,2.365234375,10.5625,-0.3388671875,1.158203125,0.45703125
5,-2.5625,-3.54296875,12.1484375,0.31640625,-0.45068359375,0.54736328125
5,-2.419921875,-0.77099609375,9.03125,1.6748046875,-0.1512451171875,-0.564453125
5,-2.4921875,1.23046875,10.515625,0.419677734375,-0.2705078125,-0.30029296875
5,-1.1748046875,1.14453125,9.0,-0.1651611328125,0.84814453125,0.0053253173828125
5,-2.943359375,1.4794921875,10.125,-0.43359375,0.07135009765625,0.1300048828125
5,-2.8984375,0.6259765625,9.5546875,-0.21728515625,-0.15869140625,-0.114013671875
5,-1.8935546875,-0.7412109375,9.96875,0.1640625,0.05859375,-0.046875
5,-1.5947265625,0.06463623046875,9.7109375,-0.024505615234375,0.2120361328125,0.01491546630859375
5,-2.3359375,-0.1005859375,9.453125,0.00959014892578125,0.0276947021484375,0.010650634765625
5,-2.373046875,-0.337646484375,9.46875,0.0894775390625,-0.0308990478515625,0.01384735107421875
5,-2.154296875,-0.01436614990234375,9.546875,0.06817626953125,0.0234375,0.0234375
5,-2.208984375,0.03350830078125,9.53125,-0.0298309326171875,-0.0234375,0.0276947021484375
5,-2.197265625,-0.13525390625,9.5390625,0.02557373046875,-0.0276947021484375,0.010650634765625
5,-2.205078125,0.07183837890625,9.6015625,0.00959014892578125,-0.034088134765625,0.0
5,-2.1875,0.047882080078125,9.609375,-0.03302001953125,-0.0266265869140625,0.0053253173828125
5,-2.1484375,0.1053466796875,9.4765625,-0.00852203369140625,-0.03729248046875,-0.0010652542114257812
5,-2.201171875,0.032318115234375,9.546875,-0.0266265869140625,-0.041534423828125,-0.00319671630859375
5,-2.0390625,0.032318115234375,9.5703125,-0.007457733154296875,-0.0181121826171875,0.0
5,-2.04296875,-0.037109375,9.609375,-0.0063934326171875,-0.012786865234375,-0.00319671630859375
5,-2.072265625,-0.1065673828125,9.5625,0.01171875,-0.0063934326171875,-0.0053253173828125
5,-2.037109375,0.059844970703125,9.6328125,-0.0170440673828125,0.0308990478515625,-0.01171875
5,-2.04296875,-0.07659912109375,9.546875,0.0170440673828125,0.0276947021484375,-0.0063934326171875
5,-2.1171875,-0.038299560546875,9.5234375,0.0426025390625,0.01171875,0.0021305084228515625
5,-2.103515625,0.039520263671875,9.578125,-0.022369384765625,-0.00852203369140625,0.004261016845703125
5,-2.123046875,-0.06463623046875,9.609375,-0.004261016845703125,-0.004261016845703125,0.0010652542114257812
5,-2.080078125,0.01436614990234375,9.59375,-0.0191802978515625,-0.0170440673828125,0.00319671630859375
5,-2.068359375,0.0179595947265625,9.6015625,-0.00319671630859375,-0.0159759521484375,0.0010652542114257812
5,-2.0546875,-0.075439453125,9.5625,0.0021305084228515625,-0.00319671630859375,0.0010652542114257812
5,-2.0703125,-0.02752685546875,9.6015625,0.0159759521484375,0.0,0.0
5,-2.07421875,-0.03472900390625,9.5859375,-0.0021305084228515625,-0.00959014892578125,0.0021305084228515625
5,-2.046875,-0.025146484375,9.6640625,-0.0053253173828125,-0.0063934326171875,0.0010652542114257812
5,-2.046875,-0.1053466796875,9.5703125,-0.0191802978515625,-0.00319671630859375,0.0053253173828125
5,-1.9736328125,-0.0814208984375,9.6015625,0.01384735107421875,0.01171875,-0.0021305084228515625
5,-2.048828125,-0.032318115234375,9.5859375,-0.0191802978515625,-0.007457733154296875,-0.0021305084228515625
5,-2.021484375,-0.02154541015625,9.578125,0.0010652542114257812,0.0021305084228515625,-0.0063934326171875
5,-2.0234375,0.06463623046875,9.59375,-0.01171875,-0.0021305084228515625,0.0
5,-2.0390625,-0.173583984375,9.625,0.012786865234375,0.0021305084228515625,-0.0010652542114257812
5,-2.060546875,0.047882080078125,9.578125,-0.0191802978515625,-0.007457733154296875,-0.0021305084228515625
5,-1.9697265625,-0.1065673828125,9.6171875,-0.00319671630859375,0.0,0.0
5,-2.037109375,-0.057464599609375,9.53125,0.0010652542114257812,-0.0170440673828125,-0.01171875
5,-2.0546875,0.026336669921875,9.5625,-0.01491546630859375,-0.0010652542114257812,-0.01491546630859375
5,-1.8935546875,-0.1041259765625,9.6796875,-0.031951904296875,-0.00319671630859375,-0.0053253173828125
5,-2.080078125,-0.22265625,9.5390625,0.0181121826171875,-0.0287628173828125,0.00852203369140625
5,-1.8818359375,-0.057464599609375,9.609375,-0.0170440673828125,0.0287628173828125,-0.00959014892578125
5,-1.947265625,-0.1185302734375,9.625,0.007457733154296875,0.0181121826171875,-0.0053253173828125
5,-2.048828125,-0.1951904296875,9.578125,0.0159759521484375,0.010650634765625,0.0021305084228515625
5,-1.951171875,-0.072998046875,9.6484375,0.02130126953125,0.06390380859375,-0.0181121826171875
5,-2.107421875,-0.0311279296875,9.609375,-0.0234375,-0.04046630859375,0.01491546630859375
5,-2.025390625,-0.1951904296875,9.5546875,0.01491546630859375,0.022369384765625,0.00852203369140625
5,-2.041015625,-0.0239410400390625,9.59375,-0.03515625,0.007457733154296875,-0.01491546630859375
5,-2.0390625,-0.18310546875,9.609375,-0.0276947021484375,0.010650634765625,0.0010652542114257812
5,-2.0859375,-0.10894775390625,9.5703125,-0.010650634765625,-0.0298309326171875,0.00319671630859375
5,-2.08984375,-0.18798828125,9.640625,-0.0276947021484375,-0.0159759521484375,0.004261016845703125
5,-1.9775390625,-0.13525390625,9.671875,-0.0191802978515625,0.0021305084228515625,-0.0063934326171875
5,-2.06640625,-0.197509765625,9.5234375,-0.00959014892578125,-0.010650634765625,-0.00319671630859375
5,-2.0,-0.1962890625,9.5625,-0.00852203369140625,0.0170440673828125,-0.0063934326171875
5,-1.966796875,-0.1939697265625,9.625,-0.0063934326171875,0.0276947021484375,-0.02130126953125
5,-2.107421875,-0.25390625,9.546875,0.0010652542114257812,0.0063934326171875,0.0010652542114257812
5,-2.05078125,-0.2406005859375,9.6171875,0.020233154296875,0.01384735107421875,0.0
5,-2.076171875,-0.252685546875,9.6171875,0.0053253173828125,-0.00319671630859375,0.00319671630859375
5,-2.095703125,-0.2274169921875,9.546875,0.0170440673828125,-0.0053253173828125,0.00852203369140625
5,-2.1015625,-0.149658203125,9.5625,-0.0159759521484375,-0.007457733154296875,0.00319671630859375
5,-1.9970703125,-0.2191162109375,9.6015625,0.004261016845703125,-0.00852203369140625,0.0053253173828125
5,-2.091796875,-0.1951904296875,9.5234375,-0.0063934326171875,-0.03515625,0.00852203369140625
5,-1.95703125,-0.1651611328125,9.65625,-0.0266265869140625,0.012786865234375,-0.007457733154296875
5,-2.08203125,-0.2286376953125,9.609375,-0.012786865234375,-0.0298309326171875,0.0
5,-2.046875,-0.274169921875,9.59375,0.010650634765625,-0.0191802978515625,0.0063934326171875
5,-1.9521484375,-0.213134765625,9.625,-0.0170440673828125,-0.00319671630859375,-0.0010652542114257812
5,-1.921875,-0.295654296875,9.625,0.024505615234375,0.01491546630859375,-0.0010652542114257812
5,-2.01171875,-0.2154541015625,9.546875,-0.01171875,0.0,0.0
5,-1.9365234375,-0.2646484375,9.625,0.0159759521484375,0.020233154296875,-0.0063934326171875
5,-1.9130859375,-0.2333984375,9.59375,-0.00852203369140625,0.0021305084228515625,0.0063934326171875
5,-2.0703125,-0.30517578125,9.59375,0.010650634765625,-0.036224365234375,0.00959014892578125
5,-1.955078125,-0.16162109375,9.6171875,-0.0298309326171875,-0.007457733154296875,0.0021305084228515625
5,-1.90625,-0.27783203125,9.625,-0.00852203369140625,0.0010652542114257812,-0.00319671630859375
5,-1.9228515625,-0.23583984375,9.6328125,-0.0021305084228515625,0.0,0.0
5,-1.9892578125,-0.282470703125,9.6015625,0.0010652542114257812,0.0,0.0021305084228515625
5,-1.94921875,-0.271728515625,9.625,0.0159759521484375,0.0170440673828125,-0.0053253173828125
5,-1.96484375,-0.237060546875,9.546875,0.0021305084228515625,0.03515625,-0.0181121826171875
5,-1.9990234375,-0.1280517578125,9.5859375,-0.0010652542114257812,0.047943115234375,-0.020233154296875
5,-2.15625,-0.1412353515625,9.640625,-0.1097412109375,-0.0745849609375,-0.155517578125
5,-2.54296875,-0.186767578125,9.6640625,-0.185302734375,-0.1011962890625,0.045806884765625
5,-2.02734375,-0.318359375,9.6484375,-0.08306884765625,0.1651611328125,0.05859375
5,-1.60546875,-0.0802001953125,10.1875,0.278076171875,0.2034912109375,-0.17041015625
5,-1.197265625,0.29443359375,9.5390625,0.395263671875,0.2034912109375,0.273681640625
5,-1.6259765625,0.81640625,8.7578125,-0.5400390625,0.08416748046875,1.1455078125
5,-3.224609375,-0.9169921875,8.46875,-1.3056640625,-0.07562255859375,0.489990234375
5,-3.462890625,-2.640625,9.578125,-0.5986328125,-0.041534423828125,0.34619140625
5,-2.36328125,-0.72412109375,8.8828125,-0.92041015625,-0.253662109375,0.343017578125
5,-1.919921875,-2.91796875,10.109375,-0.15771484375,-0.108642578125,0.1278076171875
5,-1.998046875,-2.203125,9.3828125,-0.143798828125,-0.03302001953125,0.0394287109375
5,-2.1015625,-3.056640625,9.2265625,-0.2587890625,-0.004261016845703125,0.0298309326171875
5,-2.115234375,-3.505859375,8.8203125,-0.0394287109375,0.031951904296875,-0.046875
5,-2.369140625,-2.9765625,8.9375,-0.01384735107421875,0.0,-0.053253173828125
5,-2.14453125,-3.220703125,9.046875,-0.0063934326171875,0.00319671630859375,0.01171875
5,-2.076171875,-3.203125,9.0703125,0.10333251953125,0.0276947021484375,0.004261016845703125
5,-2.20703125,-3.0625,9.015625,0.045806884765625,0.0394287109375,0.0063934326171875
5,-2.1953125,-2.9609375,9.03125,0.08203125,0.043670654296875,0.0181121826171875
5,-2.23828125,-2.931640625,9.09375,0.05218505859375,0.0394287109375,0.0010652542114257812
5,-2.306640625,-2.974609375,9.0703125,0.07562255859375,0.041534423828125,0.0021305084228515625
5,-2.328125,-2.896484375,9.03125,0.06072998046875,0.04473876953125,-0.0181121826171875
5,-2.349609375,-2.828125,9.1015625,0.1129150390625,0.0809326171875,-0.05218505859375
5,-2.314453125,-2.75390625,9.171875,0.272705078125,0.15771484375,-0.12249755859375
5,-2.537109375,-2.625,9.125,0.1651611328125,0.09906005859375,-0.08203125
5,-2.71484375,-2.515625,8.9921875,-0.1246337890625,-0.041534423828125,0.041534423828125
5,-2.76953125,-2.638671875,9.0,-0.09161376953125,-0.11932373046875,0.10546875
5,-2.5,-2.537109375,9.1328125,-0.11187744140625,-0.07135009765625,0.05645751953125
5,-2.306640625,-2.625,9.15625,0.0298309326171875,0.007457733154296875,-0.00959014892578125
5,-2.330078125,-2.693359375,9.109375,0.0543212890625,0.0234375,-0.0053253173828125
5,-2.431640625,-2.73828125,9.046875,0.00959014892578125,0.004261016845703125,-0.004261016845703125
5,-2.45703125,-2.712890625,9.046875,-0.03729248046875,0.00852203369140625,-0.01171875
5,-2.419921875,-2.669921875,9.109375,0.0159759521484375,0.0191802978515625,-0.0053253173828125
5,-2.447265625,-2.728515625,9.0859375,0.0266265869140625,0.00959014892578125,-0.00852203369140625
5,-2.470703125,-2.669921875,9.078125,0.0053253173828125,0.01171875,0.0010652542114257812
5,-2.509765625,-2.697265625,9.078125,0.0,0.012786865234375,-0.00319671630859375
5,-2.42578125,-2.65625,9.09375,0.0287628173828125,0.0159759521484375,-0.0053253173828125
5,-2.46875,-2.673828125,9.0703125,-0.004261016845703125,0.004261016845703125,-0.0021305084228515625
5,-2.48828125,-2.59375,9.09375,-0.022369384765625,0.0021305084228515625,0.00319671630859375
5,-2.486328125,-2.6953125,9.0546875,0.0053253173828125,-0.0010652542114257812,0.0010652542114257812
5,-2.513671875,-2.65234375,9.0625,-0.010650634765625,-0.0021305084228515625,0.00852203369140625
5,-2.443359375,-2.671875,9.0859375,-0.0159759521484375,0.0010652542114257812,0.0010652542114257812
5,-2.4453125,-2.7890625,9.078125,-0.0063934326171875,-0.0021305084228515625,0.0
5,-2.552734375,-2.658203125,9.0546875,0.0,-0.007457733154296875,0.004261016845703125
5,-2.47265625,-2.654296875,9.046875,-0.0159759521484375,-0.0053253173828125,0.0063934326171875
5,-2.421875,-2.673828125,9.0703125,0.01171875,-0.0063934326171875,0.007457733154296875
5,-2.474609375,-2.685546875,9.0390625,0.0170440673828125,-0.004261016845703125,0.0021305084228515625
5,-2.462890625,-2.626953125,9.1015625,0.0191802978515625,0.004261016845703125,0.0
5,-2.4609375,-2.69921875,9.09375,-0.0053253173828125,0.0021305084228515625,0.0063934326171875
5,-2.537109375,-2.65234375,9.0703125,-0.0159759521484375,0.0,0.01384735107421875
5,-2.439453125,-2.71875,9.1015625,0.0170440673828125,-0.00319671630859375,0.004261016845703125
5,-2.4765625,-2.671875,9.03125,-0.0053253173828125,-0.00852203369140625,0.0010652542114257812
5,-2.47265625,-2.662109375,9.0625,-0.0266265869140625,-0.02130126953125,0.00959014892578125
5,-2.486328125,-2.685546875,9.0625,-0.046875,-0.0234375,0.01384735107421875
5,-2.46484375,-2.689453125,9.078125,0.0,0.0063934326171875,-0.00959014892578125
5,-2.376953125,-2.69140625,9.1171875,0.0308990478515625,0.02557373046875,-0.01384735107421875
5,-2.4296875,-2.775390625,9.0859375,0.010650634765625,0.0266265869140625,0.0
5,-2.486328125,-2.72265625,9.0859375,0.0181121826171875,0.01491546630859375,-0.024505615234375
5,-2.50390625,-2.69140625,9.0234375,0.007457733154296875,0.0181121826171875,-0.00319671630859375
5,-2.48046875,-2.6796875,9.0546875,-0.0543212890625,0.0159759521484375,-0.00852203369140625
5,-2.482421875,-2.658203125,9.046875,-0.05218505859375,-0.012786865234375,-0.0276947021484375
5,-2.49609375,-2.7109375,9.0390625,-0.0053253173828125,-0.0021305084228515625,-0.01171875
5,-2.546875,-2.837890625,8.9765625,-0.0010652542114257812,-0.00852203369140625,0.0021305084228515625
5,-2.40234375,-2.794921875,9.0625,0.0234375,0.0063934326171875,0.02130126953125
5,-2.5,-2.798828125,9.0390625,0.07562255859375,0.041534423828125,0.00852203369140625
5,-2.451171875,-2.689453125,9.09375,0.09906005859375,0.046875,0.0063934326171875
5,-2.486328125,-2.552734375,9.0,0.01171875,-0.00852203369140625,-0.01491546630859375
5,-2.619140625,-2.576171875,9.0625,-0.0287628173828125,-0.061798095703125,-0.038360595703125
5,-2.607421875,-2.5625,9.015625,0.1160888671875,-0.085205078125,-0.0298309326171875
5,-2.474609375,-2.45703125,9.140625,0.418701171875,-0.132080078125,-0.0703125
5,-2.494140625,-4.09765625,10.0,1.6015625,-0.1864013671875,-0.330322265625
5,-2.541015625,-1.087890625,10.0859375,1.1455078125,-0.3642578125,-0.3271484375
5,-1.5458984375,0.583984375,9.8671875,0.9052734375,-0.414306640625,-0.58056640625
5,-1.1015625,0.27783203125,9.890625,1.15234375,-0.35791015625,-1.0166015625
5,-1.5009765625,1.7880859375,9.5234375,0.73095703125,-0.45068359375,-0.703125
5,-0.96142578125,4.26953125,8.15625,0.6455078125,-0.08734130859375,0.13427734375
5,0.96630859375,2.828125,9.65625,0.265380859375,0.0063934326171875,-0.160888671875
5,-1.162109375,2.681640625,9.421875,-0.10333251953125,0.253662109375,-0.24072265625
5,-1.7333984375,2.892578125,9.1640625,0.0809326171875,0.39404296875,0.19921875
5,-1.416015625,3.166015625,9.3203125,0.09588623046875,0.372802734375,-0.1268310546875
5,-1.859375,2.978515625,9.6875,-1.4560546875,0.155517578125,0.37060546875
5,-0.85498046875,5.41796875,8.234375,-1.2880859375,0.38134765625,0.599609375
5,0.296875,4.0703125,9.40625,-0.267333984375,0.2568359375,0.7041015625
5,2.658203125,2.2265625,8.0234375,-0.56787109375,-0.54443359375,0.66455078125
5,0.68701171875,2.087890625,11.5078125,-0.42822265625,-0.2247314453125,0.33349609375
5,0.77685546875,1.2236328125,10.2890625,-0.2386474609375,-0.12249755859375,0.1875
5,0.391357421875,1.498046875,9.6328125,-0.10015869140625,-0.041534423828125,0.09161376953125
5,1.150390625,0.147216796875,9.9296875,-0.096923828125,-0.0021305084228515625,0.0234375
5,1.5283203125,0.423828125,9.84375,-0.01491546630859375,-0.004261016845703125,0.03515625
5,1.119140625,0.0550537109375,9.7578125,-0.038360595703125,0.00959014892578125,0.036224365234375
5,1.02734375,0.27294921875,9.7109375,-0.061798095703125,0.00852203369140625,-0.004261016845703125
5,1.0966796875,0.2034912109375,9.8515625,-0.0394287109375,-0.01384735107421875,0.0053253173828125
5,1.1982421875,0.05865478515625,9.765625,-0.01171875,-0.00319671630859375,0.0053253173828125
5,1.1328125,-0.12213134765625,9.7578125,-0.03515625,0.0,0.0063934326171875
5,1.1044921875,0.08978271484375,9.7890625,0.0,0.010650634765625,0.00319671630859375
5,1.1162109375,-0.044281005859375,9.8125,-0.0426025390625,0.00319671630859375,0.004261016845703125
5,1.166015625,-0.1005859375,9.7421875,-0.02557373046875,-0.004261016845703125,0.00319671630859375
5,1.126953125,0.05267333984375,9.734375,-0.004261016845703125,-0.0063934326171875,0.00319671630859375
5,1.1591796875,-0.09698486328125,9.734375,-0.01171875,0.00319671630859375,0.00319671630859375
5,1.1240234375,-0.276611328125,9.7890625,0.010650634765625,0.0170440673828125,0.0
5,1.1337890625,-0.08258056640625,9.8046875,-0.0159759521484375,0.012786865234375,0.0021305084228515625
5,1.126953125,-0.05267333984375,9.8203125,-0.057525634765625,-0.00319671630859375,-0.0010652542114257812
5,1.1220703125,-0.1317138671875,9.7421875,0.00959014892578125,0.00319671630859375,0.00319671630859375
5,1.1435546875,-0.343505859375,9.703125,-0.1246337890625,-0.0063934326171875,0.0021305084228515625
5,1.16015625,-0.284912109375,9.78125,-0.041534423828125,-0.010650634765625,0.0
5,1.060546875,-0.12451171875,9.7265625,-0.0021305084228515625,0.0021305084228515625,0.0
5,1.1865234375,-0.303955078125,9.7890625,0.02557373046875,0.00959014892578125,0.0
5,1.126953125,-0.318359375,9.7265625,0.031951904296875,-0.00319671630859375,0.004261016845703125
5,1.1669921875,-0.343505859375,9.828125,-0.02557373046875,-0.0266265869140625,0.00319671630859375
5,1.1162109375,-0.39990234375,9.75,-0.04901123046875,-0.01171875,0.0063934326171875
5,1.1748046875,-0.42138671875,9.765625,-0.034088134765625,0.0,0.0021305084228515625
5,1.1669921875,-0.491943359375,9.7890625,-0.0266265869140625,0.0,0.004261016845703125
5,1.150390625,-0.457275390625,9.7578125,-0.01491546630859375,0.0,0.0053253173828125
5,1.1806640625,-0.422607421875,9.7578125,0.0,0.00319671630859375,0.01384735107421875
5,1.1416015625,-0.4775390625,9.734375,-0.0170440673828125,0.004261016845703125,0.0
5,1.201171875,-0.45361328125,9.765625,0.0,-0.0308990478515625,-0.0191802978515625
5,1.1513671875,-0.51611328125,9.7578125,0.041534423828125,-0.036224365234375,0.031951904296875
5,1.138671875,-0.5732421875,9.890625,-0.053253173828125,0.053253173828125,0.1214599609375
5,1.1787109375,-0.23583984375,9.7578125,-0.185302734375,0.09478759765625,0.0
5,1.2763671875,-0.348388671875,9.5390625,0.0394287109375,0.031951904296875,-0.00319671630859375
5,1.0703125,-1.1962890625,10.6328125,-0.055389404296875,-0.108642578125,0.0021305084228515625
5,1.1962890625,0.05029296875,8.71875,-0.02557373046875,0.0287628173828125,0.010650634765625
5,1.1044921875,-0.52099609375,10.0859375,-0.0170440673828125,0.0159759521484375,0.00959014892578125
5,1.0224609375,-0.63916015625,10.1015625,-0.0266265869140625,-0.0159759521484375,-0.00852203369140625
5,1.2333984375,-0.7001953125,9.5,0.0298309326171875,-0.0010652542114257812,-0.024505615234375
5,1.3017578125,-0.62353515625,9.6484375,-0.0276947021484375,0.00319671630859375,0.020233154296875
5,1.1669921875,-0.60693359375,9.7421875,-0.04046630859375,-0.010650634765625,0.02130126953125
5,0.970703125,-0.488525390625,9.734375,0.03302001953125,-0.01171875,-0.0159759521484375
5,1.3037109375,-0.59716796875,9.6015625,-0.031951904296875,-0.0308990478515625,-0.00852203369140625
5,1.2548828125,-0.76611328125,9.796875,0.0053253173828125,0.0,0.00319671630859375
5,1.146484375,-0.599609375,9.7265625,0.022369384765625,0.0063934326171875,0.0
5,1.205078125,-0.556640625,9.796875,0.0234375,-0.0010652542114257812,-0.00959014892578125
5,1.2578125,-0.6669921875,9.7109375,0.007457733154296875,0.0010652542114257812,-0.0021305084228515625
5,1.2490234375,-0.66552734375,9.7578125,0.004261016845703125,0.0063934326171875,0.0010652542114257812
5,1.197265625,-0.7255859375,9.703125,-0.022369384765625,-0.0053253173828125,0.00319671630859375
5,1.2021484375,-0.63232421875,9.703125,-0.0287628173828125,-0.004261016845703125,-0.0053253173828125
5,1.2236328125,-0.63427734375,9.7578125,-0.01384735107421875,-0.004261016845703125,0.0
5,1.185546875,-0.615234375,9.6875,0.01491546630859375,0.01171875,0.0010652542114257812
5,1.2509765625,-0.65966796875,9.6953125,-0.0010652542114257812,-0.004261016845703125,0.0
5,1.2138671875,-0.66455078125,9.7421875,0.0543212890625,0.022369384765625,-0.00959014892578125
5,1.265625,-0.64306640625,9.734375,-0.02557373046875,-0.0021305084228515625,-0.01171875
5,1.2021484375,-0.69775390625,9.7265625,0.00852203369140625,0.0191802978515625,0.0010652542114257812
5,1.267578125,-0.70751953125,9.7109375,0.0,0.010650634765625,-0.0010652542114257812
5,1.1376953125,-0.58203125,9.6953125,-0.0010652542114257812,0.00959014892578125,0.0
5,1.2314453125,-0.68359375,9.71875,-0.0170440673828125,0.00319671630859375,-0.0063934326171875
5,1.1533203125,-0.60595703125,9.7265625,-0.0063934326171875,0.0021305084228515625,0.0
5,1.1494140625,-0.615234375,9.6484375,-0.0298309326171875,0.0010652542114257812,0.0
5,1.19921875,-0.6845703125,9.7265625,-0.0181121826171875,-0.0021305084228515625,0.0
5,1.1220703125,-0.62255859375,9.7265625,-0.01384735107421875,-0.00319671630859375,-0.0010652542114257812
5,1.1298828125,-0.62255859375,9.71875,-0.007457733154296875,-0.0010652542114257812,0.0021305084228515625
5,1.1533203125,-0.619140625,9.703125,0.01171875,0.0021305084228515625,0.0021305084228515625
5,1.1201171875,-0.630859375,9.7109375,-0.022369384765625,0.0,0.0063934326171875
5,1.1982421875,-0.66064453125,9.75,0.01171875,0.0,0.0063934326171875
5,1.224609375,-0.71728515625,9.7421875,-0.01384735107421875,-0.010650634765625,0.0
5,1.123046875,-0.56494140625,9.6796875,-0.01384735107421875,-0.0053253173828125,-0.00319671630859375
5,1.1982421875,-0.63427734375,9.7578125,0.01491546630859375,-0.00319671630859375,0.004261016845703125
5,1.1748046875,-0.64501953125,9.7421875,-0.007457733154296875,0.0,-0.0063934326171875
5,1.2236328125,-0.68017578125,9.7421875,-0.0181121826171875,0.0,0.0021305084228515625
5,1.185546875,-0.6103515625,9.703125,0.02130126953125,0.01171875,0.0
5,1.23046875,-0.68212890625,9.75,-0.0276947021484375,-0.0021305084228515625,0.0010652542114257812
5,1.1572265625,-0.662109375,9.7421875,-0.0063934326171875,-0.0021305084228515625,-0.004261016845703125
5,1.2197265625,-0.71337890625,9.703125,0.004261016845703125,0.007457733154296875,0.0010652542114257812
5,1.1826171875,-0.60595703125,9.7109375,-0.00959014892578125,-0.004261016845703125,0.0
5,1.2158203125,-0.66796875,9.7109375,0.00959014892578125,0.0,-0.0010652542114257812
5,1.1943359375,-0.63330078125,9.71875,0.0,0.0,-0.0010652542114257812
5,1.1826171875,-0.63916015625,9.71875,0.0053253173828125,0.0,-0.0021305084228515625
5,1.1904296875,-0.6474609375,9.75,-0.01171875,0.0,-0.0010652542114257812
5,1.2177734375,-0.693359375,9.6953125,0.012786865234375,0.0170440673828125,0.0010652542114257812
5,1.21484375,-0.68359375,9.7109375,-0.022369384765625,0.00319671630859375,-0.004261016845703125
5,1.1962890625,-0.6669921875,9.75,0.06390380859375,0.022369384765625,-0.059661865234375
5,1.185546875,-0.68701171875,9.71875,0.413330078125,0.090576171875,-0.45166015625
5,1.14453125,-0.05029296875,10.28125,0.53466796875,0.3505859375,-0.343017578125
5,1.2626953125,1.16796875,10.34375,-0.09161376953125,0.32177734375,0.0170440673828125
5,1.6357421875,1.3359375,9.421875,0.33544921875,0.160888671875,0.160888671875
5,2.134765625,0.1436767578125,10.5390625,-0.160888671875,-0.0894775390625,0.09478759765625
5,1.59375,1.1064453125,9.84375,0.3388671875,-0.267333984375,-0.2130126953125
5,0.55908203125,0.8701171875,9.5390625,0.2919921875,-0.06500244140625,-0.202392578125
5,0.9599609375,0.61669921875,8.9375,0.020233154296875,0.0745849609375,-0.18212890625
5,0.2646484375,1.431640625,9.15625,0.10760498046875,0.20556640625,-0.2183837890625
5,-0.1329345703125,1.7060546875,9.34375,0.48046875,0.1544189453125,-0.1661376953125
5,0.2442626953125,1.4638671875,9.421875,-0.031951904296875,1.24609375,0.4697265625
5,-0.380615234375,2.43359375,9.0,0.4228515625,0.2003173828125,0.31201171875
5,-1.49609375,1.626953125,8.1640625,0.406982421875,-0.314208984375,-0.09478759765625
5,-1.2900390625,1.2646484375,9.2109375,0.10650634765625,0.00959014892578125,-0.0863037109375
5,-0.350830078125,2.53515625,9.484375,-0.208740234375,-0.0170440673828125,0.05859375
5,-0.66455078125,3.576171875,9.75,0.1097412109375,0.057525634765625,0.0660400390625
5,-0.64306640625,2.744140625,9.265625,0.1715087890625,0.0628662109375,-0.0308990478515625
5,-0.404541015625,2.23828125,9.34375,0.031951904296875,0.0628662109375,-0.0170440673828125
5,-0.62255859375,2.62109375,9.359375,-0.046875,-0.01171875,0.03515625
5,-0.8154296875,3.005859375,9.359375,-0.0276947021484375,-0.0394287109375,0.034088134765625
5,-0.73486328125,2.74609375,9.40625,0.0660400390625,-0.024505615234375,0.012786865234375
5,-0.603515625,2.740234375,9.5078125,0.01384735107421875,-0.02130126953125,0.022369384765625
5,-0.65478515625,2.751953125,9.359375,-0.004261016845703125,0.004261016845703125,0.010650634765625
5,-0.5556640625,2.8984375,9.4609375,0.0191802978515625,-0.004261016845703125,-0.0063934326171875
5,-0.61669921875,2.75390625,9.390625,0.0053253173828125,0.00959014892578125,-0.0298309326171875
5,-0.5673828125,2.8125,9.3984375,-0.00959014892578125,-0.007457733154296875,-0.0063934326171875
5,-0.546875,2.734375,9.40625,-0.02557373046875,-0.0298309326171875,0.01171875
5,-0.65380859375,2.775390625,9.4140625,-0.020233154296875,0.004261016845703125,-0.012786865234375
5,-0.53369140625,2.84765625,9.3984375,-0.0298309326171875,-0.0394287109375,0.0010652542114257812
5,-0.61767578125,2.8125,9.375,0.012786865234375,-0.0308990478515625,0.01171875
5,-0.61279296875,2.744140625,9.4296875,-0.012786865234375,-0.02130126953125,0.004261016845703125
5,-0.4453125,2.72265625,9.4453125,0.00959014892578125,-0.0021305084228515625,0.0053253173828125
5,-0.459716796875,2.716796875,9.390625,0.00959014892578125,-0.00319671630859375,0.0
5,-0.50048828125,2.728515625,9.4375,-0.004261016845703125,-0.0170440673828125,-0.0010652542114257812
5,-0.475341796875,2.701171875,9.4609375,0.0,0.01171875,-0.0053253173828125
5,-0.428466796875,2.732421875,9.453125,0.0021305084228515625,-0.0170440673828125,0.004261016845703125
5,-0.499267578125,2.72265625,9.4375,0.007457733154296875,0.00959014892578125,-0.0021305084228515625
5,-0.383056640625,2.87109375,9.3984375,0.007457733154296875,0.012786865234375,-0.0021305084228515625
5,-0.4345703125,2.728515625,9.375,0.0010652542114257812,0.0021305084228515625,-0.00959014892578125
5,-0.47998046875,2.736328125,9.453125,0.004261016845703125,-0.010650634765625,-0.03515625
5,-0.5087890625,2.7109375,9.453125,0.0,0.0010652542114257812,0.0063934326171875
5,-0.50537109375,2.7421875,9.3984375,-0.007457733154296875,0.04046630859375,-0.007457733154296875
5,-0.42138671875,2.80078125,9.4609375,0.0170440673828125,0.0010652542114257812,-0.012786865234375
5,-0.50146484375,2.701171875,9.4296875,0.0053253173828125,0.0191802978515625,0.0021305084228515625
5,-0.56640625,2.908203125,9.390625,0.007457733154296875,0.0159759521484375,-0.00852203369140625
5,-0.45263671875,2.833984375,9.3984375,-0.01384735107421875,-0.020233154296875,-0.0021305084228515625
5,-0.572265625,2.765625,9.3828125,0.041534423828125,0.0276947021484375,-0.007457733154296875
5,-0.51708984375,2.845703125,9.3984375,0.0063934326171875,0.0181121826171875,-0.01171875
5,-0.52783203125,2.763671875,9.390625,-0.0159759521484375,-0.01171875,0.004261016845703125
5,-0.58056640625,2.908203125,9.3671875,-0.01384735107421875,-0.0159759521484375,0.0053253173828125
5,-0.59521484375,2.865234375,9.390625,-0.01171875,0.0021305084228515625,0.0
5,-0.58544921875,2.900390625,9.3984375,-0.034088134765625,-0.0159759521484375,-0.0010652542114257812
5,-0.51123046875,2.76953125,9.375,-0.0181121826171875,-0.024505615234375,0.00959014892578125
5,-0.60595703125,2.779296875,9.40625,0.0,-0.0063934326171875,0.00319671630859375
5,-0.54833984375,2.705078125,9.4140625,-0.041534423828125,-0.010650634765625,0.00959014892578125
5,-0.468017578125,2.8359375,9.390625,-0.010650634765625,0.004261016845703125,-0.0053253173828125
5,-0.45361328125,2.80859375,9.390625,-0.01491546630859375,-0.01491546630859375,0.0063934326171875
5,-0.544921875,2.689453125,9.4375,-0.0010652542114257812,-0.00319671630859375,0.0
5,-0.4404296875,2.73828125,9.4453125,-0.01171875,-0.010650634765625,0.0021305084228515625
5,-0.435791015625,2.775390625,9.4375,-0.0276947021484375,-0.012786865234375,0.0010652542114257812
5,-0.430908203125,2.720703125,9.4296875,0.00852203369140625,0.0,-0.0010652542114257812
5,-0.446533203125,2.71484375,9.4375,-0.0063934326171875,0.004261016845703125,0.007457733154296875
5,-0.43212890625,2.822265625,9.453125,-0.010650634765625,-0.0021305084228515625,-0.0053253173828125
5,-0.369873046875,2.705078125,9.4296875,0.00959014892578125,-0.007457733154296875,0.0053253173828125
5,-0.459716796875,2.69140625,9.4375,-0.01171875,0.0010652542114257812,0.0010652542114257812
5,-0.38916015625,2.81640625,9.4375,0.007457733154296875,0.0,-0.00319671630859375
5,-0.428466796875,2.6171875,9.4296875,-0.0021305084228515625,0.0063934326171875,0.0021305084228515625
5,-0.422607421875,2.720703125,9.4453125,-0.022369384765625,-0.0308990478515625,0.01384735107421875
5,-0.4296875,2.755859375,9.4609375,0.0159759521484375,-0.007457733154296875,0.0
5,-0.4775390625,2.759765625,9.4453125,-0.01171875,0.00852203369140625,-0.0021305084228515625
5,-0.2861328125,2.650390625,9.4296875,0.004261016845703125,-0.0234375,0.0010652542114257812
5,-0.42138671875,2.580078125,9.453125,-0.00852203369140625,-0.004261016845703125,0.004261016845703125
5,-0.38916015625,2.681640625,9.4765625,0.020233154296875,0.0010652542114257812,0.0
5,-0.396240234375,2.763671875,9.4296875,0.020233154296875,0.0,-0.00319671630859375
5,-0.335205078125,2.642578125,9.4609375,-0.00959014892578125,-0.03302001953125,0.01384735107421875
5,-0.35791015625,2.73046875,9.4296875,0.01171875,-0.0063934326171875,-0.00319671630859375
5,-0.35546875,2.615234375,9.5,-0.0010652542114257812,-0.012786865234375,0.0
5,-0.411865234375,2.69921875,9.46875,0.0053253173828125,0.0191802978515625,-0.0170440673828125
5,-0.29931640625,2.5859375,9.4609375,-0.01171875,0.01171875,-0.01384735107421875
5,-0.356689453125,2.669921875,9.4453125,-0.010650634765625,-0.01171875,-0.007457733154296875
5,-0.406982421875,2.623046875,9.453125,0.01384735107421875,0.0191802978515625,-0.01491546630859375
5,-0.2919921875,2.546875,9.5234375,-0.04901123046875,-0.0170440673828125,0.0159759521484375
5,-0.385498046875,2.75,9.421875,-0.02557373046875,-0.0276947021484375,-0.01171875
5,-0.369873046875,2.54296875,9.453125,0.01171875,0.0,0.0
5,-0.30517578125,2.556640625,9.5,-0.00852203369140625,-0.00959014892578125,0.004261016845703125
5,-0.300537109375,2.76953125,9.4375,-0.0308990478515625,-0.024505615234375,0.0021305084228515625
5,-0.33154296875,2.625,9.4765625,-0.022369384765625,-0.0234375,0.00319671630859375
5,-0.326904296875,2.546875,9.53125,0.01491546630859375,0.0,0.004261016845703125
5,-0.28125,2.568359375,9.5078125,-0.0234375,0.0,-0.0063934326171875
5,-0.2059326171875,2.599609375,9.5078125,-0.0170440673828125,0.0,0.00319671630859375
5,-0.328125,2.431640625,9.4609375,-0.00852203369140625,0.012786865234375,-0.004261016845703125
5,-0.2418212890625,2.501953125,9.5078125,0.0,0.007457733154296875,-0.004261016845703125
5,-0.271728515625,2.48828125,9.5234375,-0.0021305084228515625,0.0010652542114257812,0.0021305084228515625
5,-0.308837890625,2.529296875,9.46875,0.0053253173828125,0.007457733154296875,0.007457733154296875
5,-0.265869140625,2.609375,9.5078125,0.0053253173828125,0.0,-0.007457733154296875
5,-0.26806640625,2.595703125,9.4609375,0.0298309326171875,0.0,0.0
5,-0.322021484375,2.51953125,9.484375,0.02130126953125,0.00959014892578125,-0.00319671630859375
5,-0.250244140625,2.6171875,9.5078125,0.0660400390625,0.0394287109375,-0.057525634765625
5,-0.341064453125,2.4921875,9.46875,0.01384735107421875,0.01491546630859375,0.004261016845703125
5,-0.296875,2.66015625,9.5,-0.022369384765625,0.004261016845703125,0.007457733154296875
5,-0.36865234375,2.67578125,9.46875,-0.00319671630859375,0.0021305084228515625,-0.03302001953125
5,-0.3759765625,2.615234375,9.421875,-0.0287628173828125,-0.007457733154296875,-0.0010652542114257812
5,-0.39990234375,2.546875,9.4765625,-0.01491546630859375,0.012786865234375,-0.0053253173828125
5,-0.361572265625,2.654296875,9.4765625,0.0010652542114257812,-0.00319671630859375,0.00852203369140625
5,-0.37353515625,2.748046875,9.453125,-0.0276947021484375,-0.0053253173828125,-0.004261016845703125
5,-0.36865234375,2.6328125,9.4140625,-0.0159759521484375,-0.0053253173828125,0.0010652542114257812
5,-0.343505859375,2.646484375,9.46875,-0.00852203369140625,-0.004261016845703125,-0.0053253173828125
5,-0.37939453125,2.60546875,9.484375,0.0021305084228515625,0.0,0.0063934326171875
5,-0.36279296875,2.5625,9.484375,0.01384735107421875,0.007457733154296875,0.0021305084228515625
5,-0.33154296875,2.62109375,9.484375,0.0234375,-0.0010652542114257812,0.0010652542114257812
5,-0.378173828125,2.603515625,9.453125,0.01384735107421875,0.00959014892578125,-0.0063934326171875
5,-0.387939453125,2.66796875,9.4609375,-0.0276947021484375,0.0,0.00319671630859375
5,-0.356689453125,2.603515625,9.4453125,0.050079345703125,0.00319671630859375,-0.00852203369140625
5,-0.37109375,2.56640625,9.453125,0.0191802978515625,0.01384735107421875,0.00319671630859375
5,-0.430908203125,2.689453125,9.46875,-0.0159759521484375,-0.00319671630859375,0.0010652542114257812
5,-0.319580078125,2.673828125,9.4609375,-0.00319671630859375,-0.01171875,0.01171875
5,-0.404541015625,2.57421875,9.4296875,-0.022369384765625,-0.036224365234375,0.020233154296875
5,-0.425048828125,2.736328125,9.4453125,-0.0234375,-0.01171875,0.0053253173828125
5,-0.316162109375,2.720703125,9.4296875,-0.024505615234375,0.0,-0.0010652542114257812
5,-0.23828125,2.7109375,9.421875,0.02130126953125,0.0298309326171875,-0.0181121826171875
5,-0.37109375,2.59375,9.4140625,0.034088134765625,0.03515625,-0.01171875
5,-0.29443359375,2.599609375,9.4765625,0.0298309326171875,0.03302001953125,-0.020233154296875
5,-0.32080078125,2.630859375,9.4921875,0.03729248046875,0.03515625,-0.00852203369140625
5,-0.435791015625,2.591796875,9.4765625,0.0426025390625,0.03515625,0.0
5,-0.45263671875,2.85546875,9.4296875,0.09161376953125,0.06817626953125,-0.08306884765625
5,-0.4296875,2.765625,9.390625,0.085205078125,0.043670654296875,-0.046875
5,-0.486083984375,2.857421875,9.3984375,0.007457733154296875,-0.01171875,0.0170440673828125
5,-0.71923828125,3.0,9.3828125,0.0,-0.0021305084228515625,0.0
5,-0.59130859375,3.041015625,9.3203125,-0.038360595703125,-0.0660400390625,0.0287628173828125
5,-0.63818359375,2.95703125,9.3515625,-0.07672119140625,-0.08843994140625,0.036224365234375
5,-0.5830078125,3.01953125,9.390625,-0.09588623046875,-0.05645751953125,0.031951904296875
5,-0.49072265625,2.939453125,9.359375,-0.1043701171875,-0.067138671875,-0.0010652542114257812
5,-0.3603515625,2.705078125,9.421875,-0.0777587890625,-0.1011962890625,0.0266265869140625
5,-0.41064453125,2.630859375,9.5,-0.03302001953125,-0.04901123046875,0.01171875
5,-0.2406005859375,2.65234375,9.421875,-0.010650634765625,-0.0980224609375,0.024505615234375
5,-0.062255859375,2.3984375,9.453125,-0.1949462890625,-0.0894775390625,0.114013671875
5,-0.06463623046875,2.81640625,9.6171875,0.0298309326171875,-0.024505615234375,0.0159759521484375
5,-0.10296630859375,2.154296875,9.4921875,0.06500244140625,0.046875,0.0394287109375
5,0.11614990234375,2.435546875,9.5,0.03515625,-0.007457733154296875,0.0426025390625
5,-0.08856201171875,2.46875,9.5,-0.03729248046875,-0.0660400390625,0.00852203369140625
5,0.0933837890625,2.447265625,9.6015625,-0.0777587890625,-0.034088134765625,0.0010652542114257812
5,0.37939453125,2.328125,9.5234375,-0.0010652542114257812,-0.2919921875,-0.1160888671875
5,-0.3388671875,2.40234375,9.4921875,0.114013671875,-1.115234375,-0.232177734375
5,0.136474609375,2.314453125,9.328125,-0.01491546630859375,0.319580078125,0.372802734375
5,0.12213134765625,1.9443359375,9.5625,-1.2861328125,0.367431640625,0.120361328125
5,0.640625,2.314453125,9.7109375,-1.078125,-0.08843994140625,-0.0063934326171875
5,-3.30078125,0.60693359375,8.265625,-0.43994140625,0.6669921875,0.05218505859375
5,-2.515625,-2.330078125,9.859375,-0.9140625,0.10333251953125,-0.007457733154296875
5,-4.77734375,-2.6484375,9.234375,0.501953125,0.15869140625,0.4814453125
5,-5.2734375,1.1513671875,9.6015625,0.307861328125,0.495361328125,-0.0511474609375
5,-4.76953125,-2.19921875,7.30859375,0.4921875,0.0159759521484375,0.1746826171875
5,-5.25390625,-3.21875,8.4765625,-0.1629638671875,0.007457733154296875,0.10650634765625
5,-6.74609375,-2.791015625,7.890625,-0.3515625,0.388916015625,-0.1097412109375
5,-4.83984375,-1.22265625,8.2421875,-0.10760498046875,0.220458984375,-0.1864013671875
5,-5.203125,-1.1943359375,8.0703125,-0.273681640625,0.034088134765625,-0.04046630859375
5,-5.99609375,-1.2021484375,7.58203125,-0.04473876953125,0.0543212890625,0.0181121826171875
5,-6.0390625,-1.818359375,7.33984375,-0.01384735107421875,0.03729248046875,-0.00959014892578125
5,-5.64453125,-1.9248046875,7.640625,0.047943115234375,0.00852203369140625,-0.00852203369140625
5,-5.9765625,-2.111328125,7.546875,0.1331787109375,0.0394287109375,-0.01491546630859375
5,-6.06640625,-1.822265625,7.46484375,0.0543212890625,0.0660400390625,0.03729248046875
5,-5.96484375,-1.7294921875,7.51953125,0.00852203369140625,0.08306884765625,0.04473876953125
5,-5.953125,-1.5458984375,7.46875,0.036224365234375,0.0181121826171875,0.055389404296875
5,-6.10546875,-1.88671875,7.42578125,-0.0394287109375,0.050079345703125,0.034088134765625
5,-5.984375,-1.9443359375,7.44921875,0.05218505859375,0.08734130859375,0.010650634765625
5,-5.97265625,-1.580078125,7.46484375,0.020233154296875,0.0660400390625,-0.00852203369140625
5,-6.1171875,-1.7578125,7.38671875,-0.050079345703125,0.08416748046875,-0.0170440673828125
5,-6.1875,-1.6787109375,7.20703125,-0.0266265869140625,0.102294921875,-0.034088134765625
5,-6.27734375,-1.5966796875,7.375,-0.0276947021484375,0.0266265869140625,-0.02557373046875
5,-6.40234375,-1.638671875,7.359375,-0.05218505859375,-0.0159759521484375,-0.004261016845703125
5,-6.51171875,-1.7275390625,7.1328125,-0.04046630859375,-0.01171875,-0.020233154296875
5,-6.3203125,-1.7138671875,7.2265625,-0.0660400390625,-0.05645751953125,-0.034088134765625
5,-6.41796875,-1.6572265625,7.2578125,-0.05645751953125,-0.09478759765625,0.0021305084228515625
5,-6.32421875,-1.9345703125,7.13671875,-0.0266265869140625,-0.02557373046875,-0.00319671630859375
5,-6.27734375,-2.044921875,7.19140625,-0.012786865234375,-0.0053253173828125,-0.004261016845703125
5,-6.2421875,-1.96484375,7.31640625,-0.15771484375,-0.0287628173828125,0.03302001953125
5,-6.22265625,-1.9921875,7.24609375,0.03515625,-0.00319671630859375,0.0010652542114257812
5,-6.09375,-1.912109375,7.28515625,0.00852203369140625,-0.0287628173828125,0.0191802978515625
5,-6.24609375,-2.166015625,7.28125,0.061798095703125,0.0021305084228515625,0.0628662109375
5,-6.125,-2.1015625,7.2109375,0.07244873046875,-0.020233154296875,0.031951904296875
5,-6.19921875,-2.123046875,7.3046875,0.00959014892578125,-0.036224365234375,0.055389404296875
5,-6.24609375,-1.853515625,7.24609375,0.022369384765625,0.0181121826171875,0.07562255859375
5,-6.16015625,-1.701171875,7.34765625,-0.038360595703125,0.0745849609375,0.09478759765625
5,-6.1171875,-1.845703125,7.3125,0.114013671875,0.0191802978515625,0.0021305084228515625
5,-6.2265625,-1.720703125,7.2734375,0.1566162109375,0.0287628173828125,0.00319671630859375
5,-6.3203125,-1.865234375,7.0625,-0.06500244140625,0.06390380859375,-0.0511474609375
5,-6.19921875,-1.4697265625,7.53125,-0.034088134765625,0.03729248046875,-0.0308990478515625
5,-6.19921875,-1.5576171875,7.34765625,-0.07562255859375,-0.034088134765625,-0.034088134765625
5,-6.5,-1.8056640625,7.13671875,-0.07989501953125,-0.038360595703125,-0.0053253173828125
5,-6.4765625,-1.7333984375,7.09375,-0.0511474609375,-0.050079345703125,-0.00852203369140625
5,-6.3984375,-1.63671875,7.32421875,0.004261016845703125,-0.03302001953125,-0.0191802978515625
5,-6.30859375,-1.8876953125,7.20703125,0.055389404296875,0.007457733154296875,-0.01171875
5,-6.24609375,-1.8603515625,7.3046875,0.0191802978515625,0.00319671630859375,-0.01384735107421875
5,-6.23828125,-1.8857421875,7.234375,0.01384735107421875,0.00852203369140625,-0.020233154296875
5,-6.234375,-1.78515625,7.27734375,0.022369384765625,0.0276947021484375,-0.0010652542114257812
5,-6.20703125,-1.765625,7.33203125,-0.0010652542114257812,-0.0021305084228515625,0.01491546630859375
5,-6.2890625,-1.896484375,7.30859375,-0.00852203369140625,0.01384735107421875,0.004261016845703125
5,-6.30078125,-1.755859375,7.23828125,-0.012786865234375,0.020233154296875,-0.007457733154296875
5,-6.31640625,-1.787109375,7.19921875,0.010650634765625,0.012786865234375,-0.0021305084228515625
5,-6.3203125,-1.791015625,7.2421875,-0.0063934326171875,0.012786865234375,-0.004261016845703125
5,-6.28515625,-1.8232421875,7.25,0.00852203369140625,-0.00319671630859375,-0.00852203369140625
5,-6.28125,-1.775390625,7.265625,0.012786865234375,-0.0234375,-0.0053253173828125
5,-6.2734375,-1.8701171875,7.22265625,-0.010650634765625,-0.004261016845703125,0.0
5,-6.39453125,-1.8623046875,7.20703125,-0.004261016845703125,-0.00852203369140625,-0.0063934326171875
5,-6.2265625,-1.81640625,7.29296875,-0.0063934326171875,-0.0276947021484375,0.0
5,-6.28515625,-1.830078125,7.2421875,-0.0063934326171875,-0.01384735107421875,-0.01171875
5,-6.24609375,-1.8076171875,7.25390625,-0.01491546630859375,-0.0191802978515625,-0.00959014892578125
5,-6.23828125,-1.8671875,7.30859375,0.0266265869140625,-0.007457733154296875,-0.00319671630859375
5,-6.203125,-1.828125,7.26953125,-0.0181121826171875,-0.004261016845703125,-0.0170440673828125
5,-6.2265625,-1.955078125,7.296875,-0.0053253173828125,0.0010652542114257812,0.0
5,-6.26171875,-1.849609375,7.32421875,0.03302001953125,-0.0010652542114257812,0.00959014892578125
5,-6.2421875,-1.896484375,7.40625,0.06390380859375,-0.0170440673828125,-0.00319671630859375
5,-6.19921875,-1.83984375,7.2421875,0.00959014892578125,-0.297119140625,0.10760498046875
5,-6.26171875,-1.8701171875,7.30859375,0.348388671875,-0.642578125,0.06500244140625
5,-6.6171875,-2.201171875,7.0625,0.5263671875,-0.787109375,0.249267578125
5,-6.3203125,-1.4833984375,7.63671875,0.9384765625,-0.1949462890625,0.2354736328125
5,-5.30859375,-1.20703125,7.984375,0.7861328125,-0.3056640625,-0.2418212890625
5,-4.14453125,-0.61279296875,9.109375,-0.1640625,-0.52099609375,-0.419677734375
5,-5.41015625,-0.556640625,8.96875,-0.78955078125,-0.2578125,-0.367431640625
5,-5.4296875,-0.2142333984375,7.99609375,0.84814453125,0.38671875,-0.00959014892578125
5,-3.07421875,-0.252685546875,7.171875,0.08306884765625,0.19921875,0.007457733154296875
5,-1.7333984375,1.61328125,11.109375,0.442138671875,0.348388671875,-0.161865234375
5,-3.482421875,0.361572265625,9.0,0.15234375,0.1171875,-0.108642578125
5,-5.20703125,-0.398681640625,8.671875,-0.06072998046875,-0.09906005859375,0.06500244140625
5,-5.45703125,0.90625,8.8671875,0.1417236328125,0.012786865234375,0.0308990478515625
5,-4.79296875,0.326904296875,8.234375,-0.11187744140625,0.046875,0.036224365234375
5,-4.62890625,0.302978515625,8.8671875,-0.0170440673828125,0.0308990478515625,0.0053253173828125
5,-4.47265625,0.7841796875,8.5859375,0.0010652542114257812,0.03302001953125,-0.02130126953125
5,-4.5234375,0.266845703125,8.671875,0.0426025390625,0.020233154296875,-0.020233154296875
5,-4.66015625,0.317138671875,8.6015625,-0.01171875,-0.0063934326171875,0.0021305084228515625
5,-4.69140625,0.417724609375,8.6015625,-0.0181121826171875,-0.0159759521484375,0.007457733154296875
5,-4.7734375,0.380615234375,8.5078125,-0.0159759521484375,-0.036224365234375,0.00852203369140625
5,-4.76953125,0.401123046875,8.6015625,-0.02130126953125,-0.04046630859375,-0.0063934326171875
8,-4.70703125,0.466796875,8.5859375,0.00852203369140625,-0.0276947021484375,-0.0170440673828125
8,-4.640625,0.237060546875,8.625,0.053253173828125,-0.0053253173828125,0.0021305084228515625
8,-4.625,0.3759765625,8.6328125,-0.010650634765625,-0.057525634765625,0.022369384765625
8,-4.50390625,0.3291015625,8.703125,0.1417236328125,-0.078857421875,0.05645751953125
8,-4.8671875,0.435791015625,8.6328125,-0.19384765625,-0.1129150390625,0.08416748046875
8,-4.61328125,0.1748046875,8.5390625,-0.036224365234375,-0.1097412109375,0.0703125
8,-4.25,1.30859375,8.6875,0.425048828125,-0.045806884765625,-0.17041015625
8,-4.77734375,-0.348388671875,8.703125,0.253662109375,-0.2578125,-0.1278076171875
8,-4.44921875,-0.1591796875,8.8125,-0.138427734375,0.0703125,0.2247314453125
8,0.64501953125,-6.58203125,7.1796875,-0.0010652542114257812,-0.161865234375,0.02557373046875
8,1.0380859375,-5.875,7.83203125,0.1160888671875,-0.01171875,-0.05645751953125
8,2.37109375,-4.62890625,7.2265625,0.061798095703125,-0.057525634765625,-0.0543212890625
8,1.1025390625,-6.59765625,8.28125,0.184326171875,0.053253173828125,-0.04473876953125
8,1.7666015625,-5.7265625,7.51171875,0.1160888671875,0.04473876953125,0.01384735107421875
8,1.4453125,-5.8359375,7.76171875,0.07135009765625,0.020233154296875,0.01384735107421875
8,1.724609375,-5.62109375,7.8359375,0.10760498046875,0.034088134765625,0.0010652542114257812
8,1.8623046875,-5.51171875,7.87109375,0.05859375,0.0191802978515625,-0.007457733154296875
8,1.45703125,-5.43359375,7.953125,-0.0703125,-0.05218505859375,-0.0511474609375
8,1.7021484375,-5.45703125,7.91015625,-0.10333251953125,-0.020233154296875,0.012786865234375
8,1.5498046875,-5.33984375,8.03125,-0.108642578125,0.041534423828125,0.0287628173828125
8,1.51171875,-5.1328125,8.1796875,0.64013671875,0.34521484375,-0.0234375
8,1.6640625,-5.43359375,8.0078125,0.11932373046875,0.149169921875,-0.0010652542114257812
8,1.7841796875,-5.59375,7.94140625,-0.7412109375,-0.0926513671875,0.17578125
8,2.34375,-6.23046875,8.0859375,-0.09161376953125,0.0511474609375,0.231201171875
8,1.2236328125,-5.82421875,7.81640625,0.548828125,0.2130126953125,0.137451171875
8,0.82470703125,-5.08203125,8.2734375,0.06500244140625,-0.29931640625,-0.23974609375
8,1.1708984375,-6.3671875,6.79296875,-0.759765625,-0.278076171875,-0.09588623046875
8,1.2578125,-6.80859375,8.1328125,-0.28662109375,-0.0063934326171875,0.055389404296875
8,0.1519775390625,-5.671875,8.2421875,0.1715087890625,0.050079345703125,-0.007457733154296875
8,1.58984375,-5.81640625,7.89453125,-0.237548828125,0.0181121826171875,0.043670654296875
8,1.84375,-6.69921875,6.3359375,0.043670654296875,0.00319671630859375,-0.01384735107421875
8,1.3740234375,-6.60546875,7.390625,0.04046630859375,-0.004261016845703125,-0.0021305084228515625
8,1.5517578125,-6.31640625,7.09375,0.04901123046875,-0.007457733154296875,0.0
8,1.3310546875,-6.78515625,6.83984375,0.1043701171875,0.00852203369140625,-0.0053253173828125
8,1.5390625,-6.59765625,7.1640625,0.12359619140625,-0.0181121826171875,-0.0159759521484375
8,1.3779296875,-6.41015625,7.078125,0.078857421875,-0.00319671630859375,-0.022369384765625
8,1.478515625,-6.51171875,7.15234375,0.034088134765625,-0.0053253173828125,-0.0010652542114257812
8,1.4384765625,-6.42578125,7.1875,0.09478759765625,0.0021305084228515625,0.01171875
8,1.4404296875,-6.109375,7.328125,-0.00852203369140625,-0.010650634765625,0.0063934326171875
8,1.47265625,-6.3125,7.41796875,-0.007457733154296875,0.012786865234375,0.00852203369140625
8,1.443359375,-6.20703125,7.35546875,0.010650634765625,0.00852203369140625,0.0021305084228515625
8,1.5087890625,-6.07421875,7.42578125,-0.0021305084228515625,-0.00319671630859375,0.0010652542114257812
8,1.447265625,-6.1640625,7.515625,0.03729248046875,0.0010652542114257812,0.0
8,1.5,-6.23828125,7.375,0.09375,0.007457733154296875,-0.01171875
8,1.4345703125,-6.1953125,7.45703125,0.034088134765625,0.0021305084228515625,-0.0021305084228515625
8,1.451171875,-6.140625,7.4296875,-0.012786865234375,-0.0063934326171875,0.0
8,1.484375,-6.12890625,7.44140625,-0.0063934326171875,0.00959014892578125,0.00319671630859375
8,1.4677734375,-6.125,7.46875,0.0021305084228515625,0.004261016845703125,0.0
8,1.451171875,-6.015625,7.53515625,-0.00319671630859375,0.0,0.0
8,1.4873046875,-6.05078125,7.55078125,-0.007457733154296875,-0.0053253173828125,0.0
8,1.4775390625,-6.10546875,7.52734375,-0.022369384765625,0.0,0.00319671630859375
8,1.47265625,-6.05859375,7.55859375,-0.00319671630859375,0.0063934326171875,-0.0053253173828125
8,1.4365234375,-6.0390625,7.4921875,0.0181121826171875,0.0063934326171875,0.004261016845703125
8,1.46484375,-6.046875,7.56640625,0.010650634765625,-0.007457733154296875,-0.00852203369140625
8,1.482421875,-6.09765625,7.5546875,0.0181121826171875,0.00959014892578125,-0.0010652542114257812
8,1.451171875,-6.06640625,7.4453125,0.031951904296875,0.007457733154296875,0.0
8,1.4306640625,-6.06640625,7.47265625,-0.0266265869140625,-0.0234375,-0.0021305084228515625
8,1.5302734375,-6.140625,7.48828125,-0.0170440673828125,-0.00319671630859375,-0.0191802978515625
8,1.443359375,-6.171875,7.50390625,0.024505615234375,0.02130126953125,0.0021305084228515625
8,1.3525390625,-6.0,7.45703125,0.0,-0.00319671630859375,-0.0021305084228515625
8,1.505859375,-6.0703125,7.6796875,-0.041534423828125,-0.01171875,0.0
8,1.484375,-6.125,7.41796875,-0.041534423828125,0.0,0.004261016845703125
8,1.42578125,-6.01171875,7.58203125,0.0170440673828125,0.00319671630859375,-0.0063934326171875
8,1.4697265625,-6.03515625,7.52734375,-0.007457733154296875,0.00319671630859375,0.0021305084228515625
8,1.515625,-6.03515625,7.6484375,-0.004261016845703125,-0.00959014892578125,-0.00852203369140625
8,1.494140625,-6.12890625,7.4453125,-0.0170440673828125,-0.0010652542114257812,0.0053253173828125
8,1.4345703125,-6.02734375,7.50390625,-0.0234375,-0.00319671630859375,-0.00319671630859375
8,1.435546875,-6.05078125,7.50390625,-0.02130126953125,-0.0063934326171875,0.0
8,1.515625,-6.1015625,7.515625,0.0159759521484375,0.007457733154296875,-0.004261016845703125
8,1.4736328125,-6.0546875,7.51953125,-0.00959014892578125,0.0,0.0010652542114257812
8,1.4716796875,-6.01953125,7.578125,0.0,-0.00852203369140625,-0.0063934326171875
8,1.5,-6.04296875,7.46875,-0.010650634765625,0.0,0.0021305084228515625
8,1.4365234375,-6.09375,7.47265625,-0.0170440673828125,-0.0053253173828125,-0.0021305084228515625
8,1.46875,-6.09375,7.48828125,-0.0010652542114257812,-0.0053253173828125,0.0
8,1.5126953125,-6.07421875,7.47265625,0.022369384765625,0.010650634765625,0.0021305084228515625
8,1.453125,-6.0234375,7.5390625,-0.0159759521484375,0.0,0.0021305084228515625
8,1.4873046875,-6.11328125,7.609375,-0.024505615234375,-0.0021305084228515625,0.0
8,1.5166015625,-5.94140625,7.50390625,-0.0021305084228515625,0.004261016845703125,0.004261016845703125
8,1.431640625,-6.04296875,7.5,0.0053253173828125,-0.0010652542114257812,-0.00319671630859375
8,1.4638671875,-6.07421875,7.515625,-0.01491546630859375,-0.0010652542114257812,0.0021305084228515625
8,1.4794921875,-6.08984375,7.4765625,0.0181121826171875,0.0063934326171875,0.0010652542114257812
8,1.4208984375,-6.05859375,7.48828125,0.038360595703125,-0.004261016845703125,-0.004261016845703125
8,1.4775390625,-6.08984375,7.62890625,-0.004261016845703125,-0.0010652542114257812,-0.0021305084228515625
8,1.5,-6.1015625,7.44140625,0.0181121826171875,0.004261016845703125,0.0
8,1.4326171875,-6.08203125,7.45703125,0.07244873046875,0.0,-0.004261016845703125
8,1.4384765625,-6.0,7.6015625,0.007457733154296875,-0.0010652542114257812,-0.0053253173828125
8,1.4677734375,-6.09765625,7.484375,-0.0063934326171875,-0.0021305084228515625,-0.00319671630859375
8,1.4560546875,-6.09765625,7.51171875,-0.007457733154296875,0.00959014892578125,0.0063934326171875
8,1.44140625,-5.98046875,7.62890625,0.0021305084228515625,0.007457733154296875,0.0
8,1.4423828125,-5.98828125,7.5390625,-0.007457733154296875,0.0010652542114257812,0.0021305084228515625
8,1.4853515625,-5.96484375,7.59375,-0.004261016845703125,-0.0021305084228515625,0.0010652542114257812
8,1.4833984375,-6.00390625,7.578125,0.00852203369140625,0.0021305084228515625,-0.00319671630859375
8,1.474609375,-6.0,7.56640625,0.020233154296875,0.0021305084228515625,-0.0053253173828125
8,1.4423828125,-6.01953125,7.5546875,-0.02130126953125,-0.01171875,-0.007457733154296875
8,1.4873046875,-6.03125,7.61328125,-0.0053253173828125,0.00959014892578125,0.004261016845703125
8,1.4423828125,-6.05859375,7.5234375,-0.0010652542114257812,0.0,-0.0053253173828125
8,1.4375,-5.9765625,7.5703125,0.024505615234375,0.007457733154296875,-0.0021305084228515625
8,1.4951171875,-5.9765625,7.61328125,-0.03729248046875,0.0,0.0
8,1.435546875,-6.03125,7.62109375,-0.0394287109375,-0.0021305084228515625,0.00319671630859375
8,1.478515625,-6.046875,7.55859375,-0.01384735107421875,-0.010650634765625,-0.00319671630859375
8,1.4833984375,-6.0,7.609375,0.0010652542114257812,0.0,-0.01491546630859375
8,1.4775390625,-5.9921875,7.55078125,-0.00959014892578125,0.007457733154296875,0.007457733154296875
8,1.482421875,-6.01171875,7.69921875,0.0053253173828125,-0.00959014892578125,-0.01491546630859375
8,1.4609375,-5.9609375,7.55859375,-0.01171875,0.0,0.0
8,1.4384765625,-5.98828125,7.55078125,0.041534423828125,0.024505615234375,0.004261016845703125
8,1.4365234375,-6.04296875,7.56640625,0.01491546630859375,0.0,-0.007457733154296875
8,1.498046875,-6.0078125,7.56640625,-0.0063934326171875,-0.00319671630859375,0.0
8,1.4716796875,-6.0703125,7.52734375,-0.02557373046875,0.0010652542114257812,0.00959014892578125
8,1.42578125,-6.078125,7.5546875,-0.0063934326171875,-0.0021305084228515625,-0.004261016845703125
8,1.474609375,-6.01171875,7.4921875,0.0063934326171875,0.0,-0.004261016845703125
8,1.466796875,-5.91796875,7.5859375,0.010650634765625,0.007457733154296875,0.0021305084228515625
8,1.4150390625,-6.015625,7.5859375,0.012786865234375,-0.0053253173828125,-0.01171875
8,1.5068359375,-6.05078125,7.5703125,0.0,-0.0063934326171875,0.00319671630859375
8,1.4775390625,-6.0703125,7.52734375,-0.0191802978515625,0.0010652542114257812,0.007457733154296875
8,1.4189453125,-6.0546875,7.578125,-0.00319671630859375,0.0,0.0
8,1.4912109375,-6.125,7.4765625,0.00959014892578125,0.00319671630859375,0.0
8,1.451171875,-5.98828125,7.58984375,0.0010652542114257812,0.007457733154296875,0.0053253173828125
8,1.48046875,-6.00390625,7.578125,0.01384735107421875,0.0021305084228515625,-0.00319671630859375
8,1.494140625,-6.05078125,7.5390625,0.0191802978515625,0.0,-0.00319671630859375
8,1.4853515625,-6.08984375,7.53515625,-0.02557373046875,0.0010652542114257812,0.0063934326171875
8,1.3935546875,-6.0546875,7.578125,-0.0063934326171875,0.0,0.0
8,1.4521484375,-6.11328125,7.484375,0.02130126953125,0.012786865234375,0.00319671630859375
8,1.4326171875,-5.9765625,7.578125,0.0053253173828125,0.0063934326171875,0.0063934326171875
8,1.4521484375,-5.9921875,7.65625,0.0021305084228515625,-0.0063934326171875,-0.007457733154296875
8,1.5087890625,-6.078125,7.55078125,0.0,-0.0021305084228515625,-0.004261016845703125
8,1.46484375,-6.04296875,7.5234375,0.0053253173828125,0.007457733154296875,0.0053253173828125
8,1.4013671875,-6.015625,7.54296875,-0.00319671630859375,0.0,-0.0010652542114257812
8,1.4140625,-6.0625,7.578125,0.0053253173828125,0.0010652542114257812,0.0
8,1.458984375,-6.046875,7.5625,-0.0063934326171875,-0.0010652542114257812,0.004261016845703125
8,1.4296875,-6.0234375,7.62109375,0.004261016845703125,0.0010652542114257812,0.0
8,1.458984375,-5.9765625,7.5546875,-0.012786865234375,0.0021305084228515625,0.0
8,1.4130859375,-5.98828125,7.5546875,0.022369384765625,0.012786865234375,0.0
8,1.4453125,-6.015625,7.515625,0.004261016845703125,0.0,-0.0010652542114257812
8,1.431640625,-5.9921875,7.61328125,0.0,0.0,-0.00319671630859375
8,1.4716796875,-6.0625,7.484375,-0.0010652542114257812,0.0010652542114257812,0.0010652542114257812
8,1.41015625,-6.0234375,7.5546875,0.0010652542114257812,0.0021305084228515625,0.0021305084228515625
8,1.4482421875,-6.01171875,7.5859375,0.02130126953125,-0.0021305084228515625,-0.0063934326171875
8,1.4462890625,-6.015625,7.53515625,-0.01171875,-0.00319671630859375,-0.0010652542114257812
8,1.4150390625,-6.0078125,7.56640625,0.007457733154296875,0.0021305084228515625,0.0021305084228515625
8,1.40625,-6.0703125,7.55859375,-0.0053253173828125,-0.00319671630859375,-0.004261016845703125
8,1.40625,-6.05078125,7.546875,-0.0021305084228515625,0.0,-0.0010652542114257812
8,1.435546875,-6.02734375,7.54296875,0.0,0.0,0.0
8,1.4111328125,-6.0,7.59765625,0.00852203369140625,0.0,0.0
8,1.47265625,-6.00390625,7.578125,0.0159759521484375,0.00319671630859375,-0.0053253173828125
8,1.40625,-6.01953125,7.53125,-0.00319671630859375,-0.004261016845703125,-0.00319671630859375
8,1.4580078125,-6.01953125,7.5703125,-0.022369384765625,0.0021305084228515625,0.0063934326171875
8,1.431640625,-6.06640625,7.55859375,-0.0053253173828125,-0.0021305084228515625,-0.00319671630859375
8,1.4375,-6.0703125,7.53125,0.0063934326171875,0.0063934326171875,0.0
8,1.453125,-5.96484375,7.609375,-0.0021305084228515625,0.0010652542114257812,0.00319671630859375
8,1.4345703125,-6.0,7.59765625,0.0010652542114257812,-0.0021305084228515625,-0.00319671630859375
8,1.5009765625,-6.04296875,7.546875,-0.02130126953125,-0.0021305084228515625,0.0063934326171875
8,1.44140625,-6.04296875,7.5546875,0.0170440673828125,0.01171875,0.004261016845703125
8,1.419921875,-6.01953125,7.51953125,0.0170440673828125,0.0021305084228515625,-0.004261016845703125
8,1.4833984375,-5.9296875,7.578125,-0.00319671630859375,-0.0010652542114257812,-0.0021305084228515625
8,1.484375,-6.02734375,7.5234375,-0.0053253173828125,0.004261016845703125,0.0063934326171875
8,1.44140625,-6.08984375,7.53125,-0.0181121826171875,-0.0053253173828125,-0.0010652542114257812
